Folder: Data-filter--cyclical-tests-BEPE-project-/ensaios_Ciclicos/_30perc/_4gap/entrada

Note: README.md
# Data filter (cyclical tests BEPE project)
python aplication to treat data get by fatigue testing machine

File: _4.txt
Time (s)	Load (N)	Displacement (mm)
0	-1	-0,034
10,763	-1,5	-0,601
21,418	-0,5	-0,482
32,074	0	-0,41
42,735	0,5	-0,371
53,402	1	-0,328
64,07	0,5	-0,349
74,749	-1,5	-0,644
85,417	-2,5	-0,819
96,072	-3,5	-0,962
106,733	-4	-1,064
117,425	-5,5	-1,46
128,105	-8	-1,775
138,784	-10,5	-2,106
149,457	-10,5	-2,216
160,136	-15	-2,718
170,81	-18,5	-3,078
181,489	-17,5	-3,206
192,168	-17,5	-2,996
202,866	-19,5	-3,289
213,551	-20,5	-3,312
224,249	-22,5	-3,412
234,946	-23	-3,434
245,632	-21	-3,378
256,329	-19,5	-3,304
267,014	-15	-2,972
277,706	-14	-2,773
288,409	-13	-2,709
299,112	-11,5	-2,564
309,816	-13	-2,659
320,513	-11,5	-2,49
331,241	-13,5	-2,725
341,956	-15	-2,897
352,665	-18,5	-3,318
363,369	-18,5	-3,332
374,084	-17,5	-3,253
384,799	-17	-3,187
395,515	-19	-3,306
406,218	-20,5	-3,396
416,928	-20	-3,362
427,643	-18,5	-3,328
438,37	-15,5	-3,066
449,098	-15	-3,042
459,795	-14,5	-2,963
470,487	-18	-3,286
481,196	-18,5	-3,35
491,905	-21,5	-3,446
502,615	-22	-3,483
513,318	-22,5	-3,493
524,04	-22	-3,496
534,737	-22	-3,496
545,464	-22	-3,498
556,18	-22	-3,499
566,865	-22	-3,499
577,592	-22	-3,5
588,296	-22	-3,432
598,987	-21,5	-3,217
609,703	-16,5	-2,746
620,412	-14,5	-2,419
631,121	-9,5	-2,077
641,837	-4,5	-1,458
652,546	-3	-1,122
663,244	-1	-0,647
673,959	1	-0,142
684,668	2	-0,027
695,378	2,5	-0,004
706,075	2,5	-0,001
716,779	2,5	0
727,482	1	-0,481
738,197	-2	-1,022
748,889	-3	-1,24
759,592	-3,5	-1,578
770,295	-6	-2,062
780,999	-8,5	-2,455
791,684	-12	-2,81
802,382	-14,5	-3,11
813,091	-20	-3,456
823,812	-21	-3,496
834,516	-21	-3,499
845,219	-21	-3,232
855,929	-14	-2,557
866,626	-10,5	-2,215
877,335	-7,5	-1,834
888,039	-3,5	-1,336
898,748	-2	-0,972
909,445	-1	-0,715
920,185	1	-0,212
930,888	2	-0,059
941,604	2,5	-0,009
952,307	2,5	-0,003
963,01	2,5	-0,022
973,708	1,5	-0,442
984,411	-1,5	-0,952
995,115	-3,5	-1,531
1005,83	-8	-2,35
1016,533	-12	-2,871
1027,231	-16	-3,287
1037,94	-19,5	-3,462
1048,644	-20,5	-3,494
1059,341	-20,5	-3,499
1070,044	-19,5	-3,065
1080,748	-11	-2,402
1091,463	-6,5	-1,816
1102,166	-4,5	-1,583
1112,864	-3,5	-1,418
1123,561	-3	-1,278
1134,259	-3	-1,223
1144,962	-1	-0,926
1155,659	-0,5	-0,66
1166,345	0	-0,516
1177,048	0	-0,271
1187,758	1,5	-0,102
1198,461	2	-0,058
1209,164	2,5	-0,035
1219,856	2,5	-0,022
1230,547	3	-0,009
1241,245	2,5	-0,004
1251,942	2,5	-0,001
1262,633	3	-0,001
1273,337	2,5	0
1284,028	3	-0,131
1294,731	0	-0,624
1305,435	-1	-0,825
1316,126	-1,5	-1
1326,83	-2,5	-1,232
1337,521	-2	-1,251
1348,23	-3,5	-1,595
1358,922	-4,5	-1,937
1369,619	-6	-2,199
1380,317	-8,5	-2,604
1391,02	-11,5	-2,965
1401,705	-14	-3,203
1412,415	-16	-3,372
1423,124	-19,5	-3,483
1433,816	-19,5	-3,492
1444,519	-19,5	-3,498
1455,222	-19,5	-3,499
1465,926	-19,5	-3,5
1476,623	-19,5	-3,445
1487,326	-18,5	-3,172
1498,036	-15,5	-2,897
1508,727	-15,5	-2,814
1519,419	-14	-2,816
1530,11	-15	-2,851
1540,813	-14,5	-2,76
1551,517	-12,5	-2,682
1562,214	-10	-2,43
1572,912	-9,5	-2,281
1583,603	-9	-2,278
1594,294	-8,5	-2,253
1604,992	-8,5	-2,22
1615,689	-8,5	-2,156
1626,387	-8	-2,164
1637,078	-7,5	-2,072
1647,769	-5,5	-1,936
1658,461	-6	-1,954
1669,164	-5	-1,721
1679,855	-5	-1,744
1690,553	-3	-1,372
1701,244	-1,5	-0,969
1711,93	-1,5	-0,986
1722,627	-0,5	-0,836
1733,336	-0,5	-0,7
1744,034	-0,5	-0,64
1754,731	-0,5	-0,671
1765,423	0	-0,536
1776,132	-0,5	-0,575
1786,823	-0,5	-0,738
1797,527	-0,5	-0,791
1808,224	0	-0,625
1818,922	-0,5	-0,73
1829,607	-1	-0,827
1840,292	-1	-0,784
1850,99	0	-0,593
1861,681	0,5	-0,272
1872,366	1	-0,177
1883,046	0,5	-0,214
1893,731	1,5	-0,132
1904,423	2,5	-0,024
1915,12	3	-0,01
1925,811	3	-0,003
1936,497	3	-0,002
1947,188	2,5	-0,001
1957,886	2,5	0
1968,583	3	-0,114
1979,268	2,5	-0,139
1989,966	2,5	-0,268
2000,651	3	0
2011,331	3	-0,001
2022,01	3	-0,002
2032,701	2,5	-0,001
2043,393	2	-0,309
2054,084	3	-0,001
2064,775	3	-0,001
2075,473	3	-0,001
2086,164	2,5	-0,001
2096,856	3	-0,001
2107,535	3	-0,002
2118,226	3	-0,004
2128,924	3	-0,007
2139,621	3	-0,012
2150,301	3	-0,03
2160,998	2,5	-0,061
2171,689	2	-0,094
2182,387	1,5	-0,185
2193,084	0	-0,338
2203,77	-0,5	-0,965
2214,461	-0,5	-1,025
2225,152	-1,5	-1,172
2235,838	-2	-1,319
2246,517	-3,5	-1,606
2257,208	-3	-1,449
2267,9	-2,5	-1,392
2278,603	-3	-1,58
2289,289	-4	-1,76
2299,98	-6	-2,04
2310,671	-3,5	-1,702
2321,369	-2,5	-1,455
2332,06	-1,5	-1,123
2342,746	-1	-1,118
2353,437	-1	-1,03
2364,122	0	-0,764
2374,82	0	-0,36
2385,523	1,5	-0,138
2396,215	0	-0,422
2406,9	0	-0,464
2417,591	0	-0,568
2428,283	0	-0,744
2438,956	-1	-1,033
2449,641	0	-0,89
2460,327	-0,5	-0,955
2471,024	-0,5	-0,981
2481,716	-1	-1,105
2492,413	-2,5	-1,45
2503,104	-2,5	-1,584
2513,802	-2,5	-1,604
2524,487	-2	-1,446
2535,173	-1	-1,255
2545,864	-2,5	-1,608
2556,561	-3	-1,682
2567,253	-3,5	-1,944
2577,956	-4,5	-2,04
2588,66	-5,5	-2,1
2599,357	-5,5	-2,296
2610,042	-6	-2,404
2620,74	-8,5	-2,619
2631,431	-8,5	-2,638
2642,122	-9,5	-2,758
2652,802	-15	-3,299
2663,505	-14	-3,195
2674,197	-15	-3,382
2684,882	-15	-3,494
2695,573	-14,5	-3,48
2706,265	-14,5	-3,478
2716,962	-15	-3,492
2727,648	-15	-3,496
2738,339	-15	-3,497
2749,03	-15	-3,498
2759,722	-14,5	-3,497
2770,407	-14,5	-3,498
2781,099	-14,5	-3,496
2791,802	-14,5	-3,491
2802,487	-13,5	-3,46
2813,179	-11,5	-3,389
2823,87	-5,5	-2,666
2834,555	-4	-2,331
2845,241	-2,5	-1,842
2855,932	-1,5	-1,548
2866,63	0	-0,873
2877,315	3	-0,27
2888,012	3	-0,002
2898,698	3	-0,003
2909,407	3	-0,014
2920,093	3	-0,036
2930,766	1	-0,318
2941,463	0	-0,614
2952,155	0	-0,59
2962,846	1	-0,458
2973,544	0,5	-0,437
2984,235	-0,5	-1,289
2994,92	-4,5	-2,379
3005,624	-10,5	-3,11
3016,315	-11,5	-3,338
3027	-12	-3,499
3037,698	-12	-3,499
3048,377	-12	-3,499
3059,069	-11	-3,497
3069,754	-10,5	-3,476
3080,439	-5,5	-3,007
3091,131	-3,5	-2,474
3101,828	-2	-1,984
3112,526	-3	-2,178
3123,223	-3	-2,168
3133,914	-3	-2,315
3144,612	-2	-2,05
3155,303	-1,5	-1,724
3166,001	-1,5	-1,56
3176,692	-1,5	-1,59
3187,383	-1,5	-1,635
3198,087	-1	-1,522
3204,176	3	-0,001