Folder: Data-filter--cyclical-tests-BEPE-project-/ensaios_Ciclicos/_newS/_3G50/entrada

Note: README.md
# Data filter (cyclical tests BEPE project)
python aplication to treat data get by fatigue testing machine

File: _1.txt
Time (s)	Load (N)	Displacement (mm)
0	-0,1	-0,026
10,545	1,52	-0,001
21,08	1,92	-0,003
31,604	2,18	-0,008
42,121	2,22	-0,027
52,663	2	-0,058
63,21	2,1	-0,064
73,745	0,84	-0,158
84,275	0,74	-0,264
94,81	-0,1	-0,356
105,34	-1,24	-0,732
115,869	-4,82	-1,348
126,404	-7,44	-1,8
136,94	-10,44	-2,3
147,475	-13,56	-2,717
157,999	-17,64	-3,499
168,552	-17,62	-3,497
179,105	-17,06	-3,471
189,629	-14,82	-3,331
200,17	-8,56	-2,535
210,7	-5,02	-2,046
221,235	-4,86	-1,956
231,788	-6,36	-2,188
242,324	-5,06	-2,092
252,859	-4,78	-1,978
263,407	-6,12	-2,182
273,948	-5,3	-2,036
284,495	-3,46	-1,696
295,037	-2,56	-1,592
305,578	-1,02	-1,255
316,12	-0,24	-0,964
326,649	1,32	-0,786
337,196	3,18	-0,44
347,726	3,86	-0,306
358,279	3,12	-0,402
368,832	3,88	-0,212
379,404	3,48	-0,389
389,981	2,66	-0,561
400,553	1	-0,906
411,124	0,22	-1,001
421,689	-0,76	-1,212
432,261	-2,44	-1,594
442,826	-3,6	-1,855
453,41	-5,7	-2,275
463,999	-9,68	-2,903
474,564	-11,04	-3,113
485,154	-15	-3,444
495,719	-15,86	-3,481
506,303	-16,06	-3,494
516,892	-16,04	-3,498
527,481	-15,96	-3,5
538,059	-15,18	-3,093
548,594	-15,6	-3,196
559,16	-14,92	-3,087
569,755	-9,98	-2,464
580,332	-8,66	-2,318
590,904	-5,52	-1,878
601,463	-3,06	-1,419
612,071	-1,28	-1,024
622,618	-0,6	-0,878
633,219	0,84	-0,619
643,839	1,96	-0,369
654,422	1	-0,513
664,988	-0,34	-0,831
675,547	-0,42	-0,865
686,148	-0,08	-0,729
696,738	0,28	-0,719
707,333	-0,08	-0,734
717,905	-0,74	-0,949
728,488	-1,32	-1,018
739,077	-1,76	-1,205
749,661	-2,56	-1,36
760,232	-2,52	-1,41
770,816	-3,06	-1,52
781,387	-4,22	-1,602
791,964	-4,7	-1,775
802,554	-5,56	-1,91
813,143	-6,72	-2,06
823,738	-6,46	-2,059
834,328	-4,24	-1,753
844,917	-3,58	-1,58
855,501	-2,6	-1,378
866,072	-1,86	-1,268
876,691	-0,8	-1,03
887,281	-0,82	-0,988
897,858	-0,12	-0,839
908,442	2,02	-0,406
919,013	1,8	-0,404
929,602	1,72	-0,411
940,18	1,94	-0,36
950,757	1,72	-0,401
961,353	2,04	-0,289
971,936	2,52	-0,196
982,519	3,42	-0,127
993,121	3,48	-0,117
1003,728	3,32	-0,111
1014,312	3,44	-0,104
1024,901	4,24	-0,054
1035,49	4,34	-0,04
1046,092	4,44	-0,034
1056,693	4,34	-0,043
1067,265	4	-0,077
1077,848	2,6	-0,177
1088,449	3,74	-0,074
1099,039	4,38	-0,043
1109,628	4,64	-0,018
1120,206	4,6	-0,022
1130,771	4,6	-0,026
1141,36	4,62	-0,022
1151,938	4,64	-0,023
1162,533	4,68	-0,015
1173,117	4,52	-0,03
1183,694	4,56	-0,028
1194,277	4,46	-0,04
1204,861	4,34	-0,048
1215,462	4,3	-0,068
1226,057	3,14	-0,165
1236,665	3,3	-0,146
1247,29	3,28	-0,173
1257,892	2,46	-0,276
1268,499	2,96	-0,26
1279,1	3,96	-0,093
1289,702	4,58	-0,03
1300,309	4,72	-0,009
1310,923	4,72	-0,002
1321,512	4,68	-0,152
1332,095	2,86	-0,611
1342,685	1,3	-0,97
1353,268	0,04	-1,262
1363,846	-0,38	-1,35
1374,429	-0,76	-1,546
1385,018	-2,46	-1,917
1395,578	-2,88	-2,025
1406,185	-4,38	-2,437
1416,769	-4,66	-2,56
1427,364	-5,92	-2,832
1437,935	-8,12	-3,162
1448,507	-9,24	-3,366
1459,084	-10,78	-3,439
1469,68	-11,46	-3,479
1480,299	-11,64	-3,496
1490,894	-11,56	-3,498
1501,478	-11,5	-3,499
1512,073	-11,42	-3,499
1522,657	-11,3	-3,498
1533,24	-11,2	-3,383
1543,835	-10,6	-3,101
1554,431	-9,16	-2,986
1565,026	-7,74	-2,778
1575,616	-7,28	-2,71
1586,193	-7,64	-2,75
1596,782	-7,1	-2,743
1607,372	-5,8	-2,52
1617,949	-6,22	-2,524
1628,544	-4,88	-2,379
1639,122	-3,44	-2,154
1649,717	-2,26	-1,86
1660,325	-1,44	-1,639
1670,908	-0,62	-1,394
1681,474	-0,9	-1,49
1692,093	-0,52	-1,384
1702,7	-0,26	-1,29
1713,296	0,16	-1,167
1723,891	0,24	-1,166
1734,498	0,32	-1,04
1745,082	0,08	-1,114
1755,671	0,36	-1,127
1766,285	0,26	-1,035
1776,916	1,24	-0,711
1787,541	1,48	-0,564
1798,143	2,5	-0,271
1808,732	2,7	-0,25
1819,304	2,44	-0,338
1829,905	1,92	-0,463
1840,488	1,82	-0,505
1851,078	1,14	-0,725
1861,667	1,24	-0,748
1872,263	1,68	-0,608
1882,852	0,78	-0,929
1893,435	0,32	-1,024
1904,031	0,7	-0,895
1914,596	0,72	-0,88
1925,18	0,78	-0,944
1935,787	1,02	-0,818
1946,37	1,86	-0,478
1956,942	1,8	-0,549
1967,537	2,42	-0,345
1978,127	3,52	-0,079
1988,704	3,48	-0,087
1999,269	3,48	-0,084
2009,847	4,1	-0,039
2020,43	4,22	-0,024
2031,008	4,18	-0,023
2041,591	4,32	-0,021
2052,18	4,22	-0,028
2062,77	4,04	-0,044
2073,347	3,02	-0,162
2083,942	2,62	-0,19
2094,52	1,66	-0,514
2105,115	1,24	-0,716
2115,693	0,52	-1,054
2126,27	0	-1,298
2136,865	-0,54	-1,552
2147,455	-1,66	-1,819
2158,02	-2,3	-1,999
2168,598	-2,36	-2,039
2179,181	-2,6	-2,2
2189,77	-2,94	-2,249
2200,354	-3,1	-2,275
2210,949	-2,68	-2,204
2221,539	-2,98	-2,34
2232,14	-3,3	-2,34
2242,735	-3,54	-2,333
2253,307	-4,54	-2,589
2263,878	-5,48	-2,81
2274,462	-6,3	-2,83
2285,069	-6,9	-2,87
2295,628	-8,36	-3,227
2306,206	-8,02	-3,208
2316,789	-8,3	-3,16
2327,373	-7,76	-3,132
2337,944	-7,72	-3,097
2348,515	-6,86	-2,991
2359,111	-4,86	-2,74
2369,694	-3,3	-2,405
2380,278	-2,72	-2,267
2390,849	-1,96	-2,099
2401,438	-1,7	-1,978
2412,01	-0,94	-1,704
2422,605	-0,12	-1,414
2433,183	0,2	-1,168
2443,76	0,58	-0,917
2454,337	1	-0,724
2464,915	1,62	-0,455
2475,504	2,62	-0,19
2486,088	2,78	-0,16
2496,665	3,26	-0,096
2507,278	3,82	-0,033
2517,862	4,08	-0,011
2528,451	4,08	-0,005
2539,028	4,08	-0,002
2549,606	4,06	-0,001
2560,195	4,02	-0,097
2570,785	3,32	-0,455
2581,362	2,36	-0,627
2591,939	0,9	-1,048
2602,541	-0,68	-1,645
2613,136	-1,38	-2,056
2623,708	-1,86	-2,314
2634,297	-2,78	-2,641
2644,88	-3,32	-2,832
2655,47	-5,82	-3,338
2666,089	-7,1	-3,474
2676,685	-7,32	-3,492
2687,292	-7,3	-3,498
2697,863	-7,26	-3,499
2708,447	-6,42	-3,11
2719,03	-3,9	-2,645
2729,608	-2,48	-2,308
2740,185	-1,28	-1,908
2750,768	-0,32	-1,466
2761,346	0,24	-1,172
2771,917	0,68	-0,882
2782,501	1,22	-0,569
2793,096	2,5	-0,122
2803,673	3,46	-0,037
2814,269	3,78	-0,011
2824,828	3,82	-0,007
2835,424	3,84	-0,002
2845,989	3,8	-0,001
2856,566	3,8	-0,234
2867,138	1,74	-0,688
2877,745	0,18	-1,239
2888,311	-0,2	-1,517
2898,906	-1,32	-2,144
2909,489	-2,38	-2,622
2920,073	-3,12	-2,91
2930,662	-3,88	-3,078
2941,245	-3,98	-3,121
2951,823	-3,84	-3,149
2962,406	-5,08	-3,366
2973,002	-5,44	-3,392
2983,579	-6,18	-3,445
2994,156	-6,54	-3,47
3004,74	-6,68	-3,482
3015,317	-6,72	-3,491
3025,901	-6,76	-3,497
3036,502	-6,76	-3,498
3047,085	-6,74	-3,497
3057,669	-6,72	-3,498
3068,252	-6,72	-3,498
3078,848	-6,7	-3,498
3089,431	-6,68	-3,498
3100,02	-6,68	-3,499
3110,604	-6,64	-3,499
3121,187	-6,62	-3,5
3131,765	-6,6	-3,497
3142,348	-6,58	-3,4
3152,943	-6,54	-3,5
3163,545	-6,5	-3,26
3168,747	3,64	0

File: _2.txt
Time (s)	Load (N)	Displacement (mm)
0	-0,08	-0,035
10,792	1,56	-0,066
21,532	2	-0,001
32,265	2,34	-0,002
42,999	2,5	-0,013
53,768	2,64	-0,02
64,514	2,38	-0,05
75,295	2,62	-0,049
86,058	2,54	-0,058
96,822	2,78	-0,057
107,609	2,94	-0,042
118,39	2,98	-0,048
129,154	2,82	-0,06
139,923	3	-0,059
150,68	3	-0,077
161,432	2	-0,148
172,213	2,08	-0,127
182,971	2,4	-0,118
193,74	2,38	-0,156
204,504	0,92	-0,38
215,285	0,58	-0,442
226,084	0,6	-0,458
236,878	0,48	-0,545
247,665	0,08	-0,566
258,44	0,06	-0,639
269,228	0,36	-0,533
280,021	1,64	-0,251
290,796	1,36	-0,357
301,572	1,8	-0,258
312,347	2,18	-0,24
323,153	2,1	-0,256
333,94	2,34	-0,173
344,733	2,58	-0,18
355,509	3,4	-0,095
366,302	3,54	-0,107
377,096	3,94	-0,049
387,883	4,28	-0,026
398,676	4,38	-0,015
409,482	4,46	-0,005
420,269	4,48	-0,004
431,068	4,48	-0,002
441,868	4,5	-0,002
452,667	4,52	-0,002
463,485	4,54	-0,002
474,296	4,56	-0,003
485,101	4,54	-0,001
495,901	4,56	-0,001
506,7	4,6	-0,002
517,542	4,58	-0,001
528,341	4,62	-0,001
539,14	4,64	-0,001
549,928	4,66	-0,001
560,733	4,66	-0,001
571,544	4,7	-0,002
582,356	4,7	-0,002
593,143	4,74	-0,003
603,949	4,76	-0,003
614,736	4,76	-0,002
625,529	4,78	-0,004
636,329	4,8	-0,007
647,134	4,82	-0,006
657,957	4,82	-0,002
668,763	4,78	-0,001
679,574	4,78	-0,001
690,356	4,78	0
701,155	4,8	0
711,96	4,14	-0,346
722,766	1,82	-0,867
733,547	-0,1	-1,193
744,359	-3,16	-1,855
755,158	-5,78	-2,318
765,951	-5,54	-2,438
776,763	-6,88	-2,573
787,562	-7,22	-2,621
798,367	-8,54	-2,849
809,155	-10,06	-3,008
819,984	-12,74	-3,355
830,796	-13,28	-3,4
841,607	-13,98	-3,428
852,412	-14,7	-3,446
863,2	-14,02	-3,44
873,987	-13,18	-3,406
884,775	-13,84	-3,418
895,574	-13,62	-3,43
906,373	-14,44	-3,458
917,161	-15,04	-3,479
927,972	-14,96	-3,472
938,783	-15,14	-3,487
949,589	-15,16	-3,491
960,4	-15,16	-3,492
971,218	-15,14	-3,492
982,029	-15,1	-3,489
992,828	-14,96	-3,485
1003,634	-14,98	-3,484
1014,433	-14,68	-3,473
1025,25	-14,36	-3,458
1036,038	-13,7	-3,43
1046,831	-12,42	-3,395
1057,661	-13,26	-3,412
1068,454	-12,66	-3,397
1079,271	-12,56	-3,39
1090,065	-12,22	-3,354
1100,882	-11,52	-3,303
1111,682	-12,5	-3,372
1122,481	-10,34	-3,28
1133,286	-10,32	-3,261
1144,116	-11,52	-3,317
1154,915	-10,92	-3,274
1165,75	-11,36	-3,353
1176,55	-12,76	-3,415
1187,355	-12,32	-3,412
1198,167	-11,68	-3,406
1208,966	-12,32	-3,411
1219,777	-12,5	-3,414
1230,583	-11,96	-3,402
1241,394	-11,8	-3,394
1252,176	-9,16	-3,167
1262,981	-7,02	-2,858
1273,78	-6,78	-2,832
1284,586	-6,86	-2,848
1295,379	-5,4	-2,552
1306,19	-6,22	-2,682
1316,996	-6,66	-2,834
1327,789	-8,26	-3,045
1338,589	-8,54	-3,104
1349,4	-9,54	-3,304
1360,187	-9,96	-3,33
1370,993	-11,48	-3,433
1381,786	-12,06	-3,448
1392,592	-12,26	-3,47
1403,397	-12,52	-3,486
1414,196	-12,44	-3,488
1424,996	-12,4	-3,49
1435,795	-12,32	-3,491
1446,612	-12,26	-3,498
1457,418	-12,12	-3,499
1468,211	-12,02	-3,499
1479,023	-11,9	-3,338
1489,84	-11,58	-3,21
1500,675	-9,76	-2,964
1511,499	-7,92	-2,666
1522,322	-6,86	-2,488
1533,127	-4,76	-2,195
1543,933	-3,5	-2,008
1554,714	-3,18	-2,005
1565,52	-1,9	-1,67
1576,313	-0,46	-1,354
1587,124	0,16	-1,183
1597,93	0,52	-1,019
1608,717	0,96	-0,865
1619,487	1,38	-0,748
1630,28	1,58	-0,66
1641,085	2,26	-0,535
1651,897	2,54	-0,358
1662,696	2,64	-0,264
1673,489	3,04	-0,25
1684,289	3,3	-0,218
1695,094	3,88	-0,104
1705,87	4,08	-0,103
1716,675	3,92	-0,097
1727,498	4,58	-0,069
1738,292	4,48	-0,053
1749,085	4,84	-0,032
1759,897	5,02	-0,018
1770,69	5	-0,014
1781,507	5,06	-0,005
1792,313	5,06	-0,003
1803,13	5,04	-0,001
1813,947	5	0
1824,747	4,98	-0,202
1835,57	3,42	-0,536
1846,376	1,62	-0,97
1857,175	0,3	-1,268
1867,974	0,14	-1,349
1878,78	-1,14	-1,699
1889,591	-1,84	-1,882
1900,402	-2,16	-2,113
1911,226	-3,04	-2,286
1922,031	-4,88	-2,786
1932,831	-6,28	-3,073
1943,654	-6,4	-3,177
1954,459	-6,4	-3,203
1965,283	-7,5	-3,314
1976,1	-8,7	-3,402
1986,894	-8,26	-3,414
1997,723	-8,98	-3,424
2008,51	-8,3	-3,39
2019,304	-8,98	-3,422
2030,109	-9,26	-3,462
2040,902	-9,06	-3,444
2051,702	-9,18	-3,45
2062,495	-9,14	-3,443
2073,283	-8,04	-3,379
2084,07	-6,14	-3,18
2094,863	-6,06	-3,135
2105,669	-6,3	-3,212
2116,474	-6,8	-3,345
2127,292	-7,42	-3,342
2138,091	-8,22	-3,406
2148,896	-8,1	-3,406
2159,69	-8,12	-3,396
2170,483	-8,16	-3,418
2181,294	-8,02	-3,398
2192,1	-7,16	-3,343
2202,923	-6,44	-3,323
2213,729	-6,24	-3,247
2224,534	-6,02	-3,228
2235,345	-5,52	-3,272
2246,145	-7,1	-3,377
2256,95	-6,2	-3,314
2267,756	-7,18	-3,406
2278,567	-7,88	-3,413
2289,366	-6,56	-3,332
2300,172	-6,86	-3,368
2310,989	-7,54	-3,412
2321,782	-7,82	-3,42
2332,576	-7,28	-3,439
2343,381	-8,38	-3,466
2354,181	-8,28	-3,46
2364,998	-8,4	-3,476
2375,785	-8,48	-3,489
2386,579	-8,4	-3,483
2397,39	-8,38	-3,488
2408,189	-8,34	-3,492
2418,983	-8,4	-3,493
2429,794	-8,36	-3,498
2440,582	-8,3	-3,499
2451,375	-8,28	-3,499
2462,162	-8,22	-3,499
2472,956	-8,22	-3,499
2483,755	-8,16	-3,499
2494,561	-8,12	-3,499
2505,342	-8,08	-3,499
2516,141	-8,02	-3,499
2526,935	-8	-3,499
2537,734	-7,94	-3,499
2548,539	-7,86	-3,434
2559,333	-7,5	-3,238
2570,12	-7,6	-3,142
2580,92	-5,7	-2,842
2591,719	-4,86	-2,714
2602,512	-3,92	-2,568
2613,306	-3,32	-2,48
2624,087	-3,1	-2,436
2634,88	-2,7	-2,364
2645,668	-2,52	-2,28
2656,449	-2,26	-2,13
2667,249	-1,46	-1,874
2678,042	-0,94	-1,724
2688,829	-0,62	-1,569
2699,623	-0,58	-1,599
2710,422	-0,32	-1,497
2721,222	0,14	-1,268
2732,003	0,34	-1,165
2742,79	0,14	-1,23
2753,59	0,26	-1,107
2764,383	0,4	-1,078
2775,177	0,92	-0,847
2785,97	1,46	-0,63
2796,775	2,1	-0,34
2807,581	2,8	-0,164
2818,386	3,82	-0,054
2829,167	4,16	-0,032
2839,967	4,26	-0,02
2850,772	4,22	-0,02
2861,572	4,28	-0,014
2872,359	4,32	-0,008
2883,164	4,36	-0,004
2893,964	4,34	-0,001
2904,763	4,3	-0,065
2915,562	3,64	-0,351
2926,398	1,84	-0,799
2937,197	1,66	-0,943
2947,997	0,5	-1,264
2958,79	-0,02	-1,478
2969,613	-0,76	-1,902
2980,413	-1,54	-2,276
2991,218	-2,32	-2,53
3002,018	-2,88	-2,747
3012,823	-3,84	-3,056
3023,64	-5,64	-3,4
3034,44	-6,36	-3,452
3045,239	-6,76	-3,481
3056,044	-6,86	-3,493
3066,862	-6,86	-3,498
3077,667	-6,8	-3,5
3088,467	-6,5	-3,202
3099,266	-4,9	-2,842
3110,065	-2,96	-2,448
3120,877	-1,36	-1,983
3131,676	-0,86	-1,78
3142,469	-0,14	-1,475
3153,263	0,54	-1,014
3164,074	1,56	-0,48
3174,85	2,74	-0,162
3185,673	4,06	-0,018
3196,466	4,14	-0,006
3207,26	4,16	-0,002
3218,053	4,14	0
3228,859	4,12	-0,267
3233,076	4,12	-0,001

File: _3.txt
Time (s)	Load (N)	Displacement (mm)
0	-0,1	-0,035
10,769	1,04	-0,292
21,466	1,54	-0,325
32,17	1,42	-0,442
42,861	1,58	-0,386
53,559	2,02	-0,35
64,268	2,26	-0,353
74,965	2,68	-0,107
85,67	2,78	-0,136
96,366	2,88	-0,089
107,076	2,96	-0,136
117,797	3,04	-0,001
128,5	3,14	-0,001
139,21	3,24	-0,001
149,919	3,3	-0,002
160,634	3,36	-0,002
171,338	3,44	-0,005
182,059	3,48	-0,006
192,793	3,54	-0,006
203,52	3,58	-0,006
214,235	3,62	-0,009
224,963	3,64	-0,01
235,69	3,66	-0,012
246,418	3,68	-0,018
257,139	3,56	-0,027
267,878	3,64	-0,026
278,636	3,72	-0,02
289,369	3,82	-0,014
300,108	3,86	-0,013
310,854	3,86	-0,018
321,605	3,92	-0,014
332,357	3,98	-0,006
343,102	4,02	-0,002
353,853	4,04	-0,002
364,593	4,04	-0,001
375,35	4,06	-0,001
386,107	4,06	-0,001
396,865	4,06	-0,012
407,628	4,06	-0,242
418,392	3,86	-0,379
429,149	3,76	-0,323
439,888	2,52	-0,599
450,646	2,08	-0,714
461,421	1,22	-0,835
472,191	0,1	-1,057
482,942	-0,38	-1,132
493,687	-0,62	-1,291
504,451	-2,28	-1,507
515,208	-2,36	-1,611
525,959	-3,16	-1,734
536,723	-3,84	-1,885
547,48	-4,4	-2,068
558,25	-5,92	-2,286
569,007	-6,24	-2,311
579,77	-7,42	-2,52
590,528	-7,5	-2,719
601,309	-10,74	-3,023
612,085	-12,86	-3,276
622,848	-12,72	-3,315
633,593	-11,5	-3,195
644,357	-11,06	-3,268
655,102	-11,04	-3,113
665,823	-9,82	-2,937
676,581	-7,6	-2,764
687,344	-9,2	-2,878
698,096	-9,18	-2,904
708,859	-10,28	-3,038
719,616	-9,78	-3,016
730,374	-10,44	-3,092
741,131	-9,9	-3,065
751,901	-10,98	-3,146
762,658	-11,92	-3,247
773,409	-10,24	-3,171
784,191	-12,38	-3,325
794,966	-14,18	-3,416
805,693	-13,2	-3,412
816,469	-14,66	-3,452
827,238	-15,26	-3,471
838,02	-15,32	-3,48
848,789	-15,42	-3,483
859,54	-15,32	-3,48
870,322	-15,36	-3,487
881,079	-15,46	-3,489
891,825	-15,42	-3,491
902,564	-15,32	-3,488
913,333	-15,38	-3,49
924,079	-15,38	-3,491
934,824	-15,38	-3,491
945,576	-15,38	-3,492
956,339	-15,36	-3,494
967,108	-15,36	-3,495
977,866	-15,34	-3,495
988,641	-15,34	-3,497
999,386	-15,3	-3,495
1010,156	-15,28	-3,494
1020,901	-15,22	-3,492
1031,677	-15,26	-3,496
1042,434	-15,22	-3,496
1053,173	-15,16	-3,494
1063,913	-15,06	-3,492
1074,652	-15,06	-3,491
1085,41	-15,04	-3,494
1096,179	-15,04	-3,492
1106,954	-15,06	-3,496
1117,73	-14,98	-3,496
1128,475	-14,92	-3,494
1139,244	-14,88	-3,494
1150,008	-14,76	-3,489
1160,765	-14,42	-3,475
1171,541	-13,7	-3,457
1182,304	-13,56	-3,443
1193,061	-13	-3,422
1203,825	-12,74	-3,421
1214,588	-12,64	-3,4
1225,339	-11,8	-3,384
1236,079	-9,92	-3,253
1246,83	-9,84	-3,212
1257,576	-8,4	-3,039
1268,351	-8,62	-3,006
1279,115	-7,36	-2,948
1289,872	-7,42	-2,9
1300,641	-8,56	-2,989
1311,411	-7,48	-2,978
1322,162	-7,1	-2,802
1332,925	-7,22	-2,883
1343,689	-7,6	-2,927
1354,452	-7,3	-3,004
1365,222	-7,8	-3,002
1375,985	-7,28	-2,882
1386,736	-6,64	-2,749
1397,482	-6,08	-2,704
1408,239	-6,5	-2,808
1418,972	-5,04	-2,723
1429,73	-5,64	-2,673
1440,493	-5,42	-2,585
1451,233	-4,64	-2,424
1462,002	-3,78	-2,232
1472,759	-2,76	-1,991
1483,505	-3,1	-2,006
1494,268	-2,9	-1,994
1505,02	-2,2	-1,828
1515,789	-2,34	-1,85
1526,534	-2,1	-1,788
1537,292	-1,42	-1,638
1548,043	-0,5	-1,467
1558,806	-0,7	-1,378
1569,558	0,06	-1,272
1580,315	0,78	-1,169
1591,091	0,96	-1,086
1601,86	1,4	-0,991
1612,617	2,9	-0,716
1623,381	2,5	-0,692
1634,15	2,4	-0,735
1644,902	2,68	-0,681
1655,653	2,86	-0,66
1666,416	4,1	-0,47
1677,186	3,52	-0,528
1687,943	4,08	-0,468
1698,7	4,72	-0,194
1709,482	4,72	-0,021
1720,221	4,74	-0,001
1730,985	4,76	-0,001
1741,718	4,76	-0,002
1752,481	4,78	-0,004
1763,221	4,76	-0,008
1773,99	4,7	-0,017
1784,736	4,62	-0,026
1795,457	4,06	-0,071
1806,226	4,06	-0,067
1816,99	4,18	-0,061
1827,735	3,44	-0,131
1838,504	3,32	-0,134
1849,262	3,12	-0,169
1860,013	2,18	-0,443
1870,765	2,3	-0,448
1881,534	1,46	-0,623
1892,291	1,04	-0,78
1903,043	1,32	-0,728
1913,8	0,92	-0,776
1924,582	1,7	-0,648
1935,351	1,52	-0,654
1946,108	1	-0,798
1956,89	0,74	-0,93
1967,647	0,92	-0,832
1978,422	1,48	-0,668
1989,192	1,5	-0,628
1999,961	1,44	-0,707
2010,719	0,44	-1,034
2021,5	-0,18	-1,271
2032,246	-0,72	-1,45
2043,003	-1,14	-1,611
2053,766	-0,92	-1,535
2064,518	-2,48	-2,041
2075,287	-3,84	-2,243
2086,05	-2,7	-2,082
2096,796	-3	-2,139
2107,547	-3,46	-2,203
2118,31	-3,5	-2,302
2129,074	-3,64	-2,317
2139,831	-4,36	-2,488
2150,595	-5,3	-2,578
2161,346	-5,48	-2,658
2172,103	-6,72	-2,781
2182,873	-6,98	-2,793
2193,636	-6,42	-2,813
2204,412	-7,06	-2,937
2215,187	-6,98	-2,95
2225,956	-8,66	-3,063
2236,72	-9,18	-3,395
2247,477	-9,16	-3,433
2258,246	-9,14	-3,5
2269,01	-9,08	-3,499
2279,785	-9,08	-3,499
2290,555	-9,02	-3,499
2301,306	-8,98	-3,499
2312,045	-8,96	-3,499
2322,815	-8,92	-3,499
2333,566	-8,88	-3,498
2344,324	-8,82	-3,499
2355,087	-8,78	-3,499
2365,838	-8,74	-3,499
2376,602	-8,72	-3,499
2387,365	-8,68	-3,499
2398,146	-8,64	-3,499
2408,91	-8,6	-3,499
2419,649	-8,6	-3,499
2430,401	-8,6	-3,499
2441,164	-8,56	-3,499
2451,939	-8,52	-3,498
2462,691	-8,5	-3,498
2473,442	-8,48	-3,499
2484,2	-8,44	-3,499
2494,951	-8,4	-3,498
2505,696	-8,36	-3,498
2516,448	-8,3	-3,499
2527,205	-8,24	-3,499
2537,981	-8,18	-3,499
2548,744	-8,14	-3,499
2559,495	-8,12	-3,498
2570,259	-8,06	-3,497
2581,022	-8,04	-3,498
2591,785	-8	-3,495
2602,549	-7,94	-3,494
2613,306	-7,9	-3,492
2624,064	-7,82	-3,485
2634,809	-7,5	-3,465
2645,578	-7,54	-3,463
2656,336	-7,06	-3,45
2667,093	-7,46	-3,476
2677,833	-7,42	-3,476
2688,59	-7,6	-3,486
2699,353	-7,68	-3,493
2710,093	-7,64	-3,491
2720,844	-7,62	-3,492
2731,577	-7,54	-3,486
2742,329	-7,46	-3,487
2753,086	-7,52	-3,492
2763,838	-7,48	-3,492
2774,607	-7,48	-3,496
2785,346	-7,44	-3,496
2796,098	-7,44	-3,498
2806,849	-7,4	-3,498
2817,601	-7,38	-3,498
2828,352	-7,36	-3,499
2839,097	-7,36	-3,499
2849,855	-7,3	-3,486
2860,606	-6,74	-3,149
2871,351	-6,26	-2,968
2882,121	-4,42	-2,773
2892,89	-3,1	-2,434
2903,636	-2,1	-2,103
2914,393	-0,56	-1,488
2925,138	0,6	-0,843
2935,908	1,14	-0,524
2946,659	1,76	-0,306
2957,411	2,4	-0,142
2968,168	3,18	-0,066
2978,937	3,76	-0,021
2989,701	3,82	-0,013
3000,452	3,8	-0,009
3011,227	3,86	-0,002
3021,985	3,84	-0,003
3032,748	3,86	-0,002
3043,5	3,84	-0,001
3054,245	3,82	-0,001
3065,002	3,82	-0,001
3075,76	3,82	-0,001
3086,505	3,8	-0,001
3097,275	3,78	-0,03
3108,026	3,78	-0,196
3118,801	1,96	-0,71
3129,547	1,56	-0,722
3140,316	0,56	-1,124
3151,085	-0,36	-1,471
3161,837	-0,96	-1,95
3172,594	-1,46	-2,224
3183,334	-1,46	-2,228
3194,091	-1,76	-2,343
3204,842	-3,8	-3,05
3215,6	-5,98	-3,414
3225,535	3,74	-0,001

File: _4.txt
Time (s)	Load (N)	Displacement (mm)
0	-0,14	-0,03
10,78	1,48	-0,001
21,471	1,94	-0,004
32,157	2,14	-0,018
42,854	2,26	-0,028
53,557	1,68	-0,084
64,279	0,98	-0,176
74,988	0,2	-0,244
85,686	-2,42	-0,788
96,419	-4,24	-1,18
107,122	-7,86	-1,76
117,838	-9,58	-2,089
128,565	-11,72	-2,316
139,275	-11,26	-2,297
150,002	-15,2	-2,805
160,735	-18,08	-3,18
171,469	-18,28	-3,369
182,208	-18,24	-3,5
192,947	-18,2	-3,499
203,711	-18,1	-3,499
214,456	-18,06	-3,499
225,226	-17,98	-3,499
235,983	-17,94	-3,498
246,74	-17,86	-3,497
257,522	-17,8	-3,496
268,255	-17,64	-3,486
278,989	-16,7	-3,446
289,734	-13,88	-3,298
300,479	-11,56	-2,982
311,243	-9,2	-2,713
322	-7,9	-2,44
332,763	-4,3	-1,787
343,515	-1,34	-1,181
354,278	1,12	-0,781
365,06	2,08	-0,646
375,817	3,8	-0,297
386,556	4,1	-0,015
397,302	4,18	-0,001
408,053	4,2	-0,001
418,822	4,28	-0,002
429,574	4,28	-0,002
440,337	4,32	-0,003
451,113	4,34	-0,006
461,87	4,36	-0,01
472,639	4,3	-0,018
483,397	4,3	-0,022
494,154	4,18	-0,032
504,912	4,24	-0,033
515,663	4,14	-0,053
526,414	3,44	-0,085
537,178	3,52	-0,084
547,929	2,26	-0,114
558,692	3	-0,098
569,486	4,12	-0,054
580,261	4,36	-0,035
591,013	4,54	-0,011
601,764	4,58	-0,006
612,515	4,58	-0,001
623,285	4,54	0
634,024	4,14	-0,29
644,8	3,16	-0,545
655,539	1,1	-0,842
666,32	0,52	-1,012
677,102	-0,74	-1,275
687,859	0,38	-1,012
698,604	1,44	-0,827
709,362	0,88	-0,99
720,113	-0,48	-1,208
730,877	-0,38	-1,204
741,634	-0,12	-1,139
752,373	-0,6	-1,206
763,125	-2,5	-1,663
773,906	-6,18	-2,437
784,676	-7,64	-2,616
795,445	-5,12	-2,216
806,196	-5,5	-2,306
816,978	-8,52	-2,792
827,735	-8	-2,775
838,492	-6,44	-2,517
849,25	-8,02	-2,728
859,995	-10,8	-3,177
870,759	-14,64	-3,442
881,51	-15,58	-3,482
892,255	-15,7	-3,494
903,013	-15,68	-3,499
913,764	-15,62	-3,498
924,516	-14,64	-2,994
935,267	-11,06	-2,656
946,012	-10,28	-2,543
956,77	-11,88	-2,666
967,527	-12,68	-2,812
978,303	-13,54	-2,948
989,054	-15,46	-3,327
999,793	-15,44	-3,5
1010,557	-15,46	-3,5
1021,314	-15,48	-3,499
1032,065	-15,46	-3,499
1042,823	-15,44	-3,495
1053,574	-13,2	-3,399
1064,338	-13,96	-3,41
1075,089	-13,08	-3,343
1085,846	-12,92	-3,378
1096,61	-14	-3,434
1107,349	-15	-3,471
1118,107	-15,16	-3,485
1128,846	-15,32	-3,496
1139,603	-15,3	-3,498
1150,367	-15,22	-3,5
1161,124	-14	-3,097
1171,863	-13,28	-2,985
1182,603	-15,06	-3,236
1193,372	-15,16	-3,499
1204,124	-15,14	-3,498
1214,875	-15,08	-3,495
1225,62	-15,04	-3,491
1236,372	-14,94	-3,487
1247,123	-14,7	-3,47
1257,875	-12,6	-3,378
1268,632	-9	-3,032
1279,377	-8,46	-2,863
1290,141	-7,7	-2,759
1300,904	-2,64	-1,835
1311,656	-1,12	-1,431
1322,419	0,86	-1,022
1333,158	4,66	-0,366
1343,928	1,96	-0,884
1354,685	1,94	-0,897
1365,454	-0,7	-1,432
1376,212	-1,78	-1,631
1386,963	-3,28	-1,908
1397,727	-5,08	-2,426
1408,49	-7,98	-2,88
1419,271	-8,82	-3,042
1430,047	-11,06	-3,318
1440,804	-7,7	-2,936
1451,573	-6,62	-2,643
1462,337	-6,1	-2,608
1473,094	-6,78	-2,761
1483,834	-3,6	-2,137
1494,597	-2,9	-1,947
1505,36	-4,62	-2,38
1516,13	-8,22	-3,027
1526,905	-11,84	-3,424
1537,651	-12,66	-3,483
1548,414	-12,62	-3,499
1559,171	-12,42	-3,309
1569,935	-12,3	-3,252
1580,68	-12,2	-3,369
1591,431	-12,12	-3,5
1602,189	-12,02	-3,5
1612,952	-12	-3,499
1623,692	-11,94	-3,498
1634,449	-11,8	-3,493
1645,2	-11,66	-3,483
1655,982	-11,38	-3,468
1666,739	-10,94	-3,452
1677,485	-11,02	-3,456
1688,23	-11	-3,454
1698,981	-10,68	-3,452
1709,739	-10,84	-3,456
1720,484	-10,16	-3,453
1731,229	-10,66	-3,451
1741,975	-9,76	-3,395
1752,72	-8,48	-3,341
1763,478	-8,36	-3,304
1774,235	-9,92	-3,414
1784,992	-9,88	-3,423
1795,75	-10,52	-3,458
1806,507	-10,74	-3,475
1817,271	-10,32	-3,467
1828,028	-10,36	-3,455
1838,791	-10,56	-3,478
1849,537	-10,62	-3,486
1860,276	-10,58	-3,491
1871,021	-10,54	-3,496
1881,767	-10,5	-3,495
1892,536	-10,44	-3,497
1903,294	-10,4	-3,497
1914,045	-10,32	-3,497
1924,772	-10,28	-3,497
1935,536	-10,18	-3,499
1946,281	-10,16	-3,499
1957,015	-10,1	-3,499
1967,766	-10,06	-3,499
1978,523	-10	-3,499
1989,293	-9,9	-3,439
2000,05	-8,94	-3,049
2010,813	-5,48	-2,654
2021,583	-3,68	-2,214
2032,334	-1,78	-1,833
2043,086	-0,66	-1,463
2053,861	0,2	-1,194
2064,618	1,18	-0,829
2075,358	2,08	-0,513
2086,127	3,18	-0,228
2096,903	4,2	-0,054
2107,654	4,62	-0,031
2118,405	4,78	-0,015
2129,151	4,84	-0,005
2139,896	4,82	-0,005
2150,641	4,82	-0,006
2161,375	4,8	-0,003
2172,12	4,78	-0,001
2182,884	4,78	-0,001
2193,635	4,76	0
2204,392	4,74	0
2215,162	4,02	-0,412
2225,931	2,48	-0,694
2236,689	2,02	-0,787
2247,452	1,48	-0,98
2258,203	1,12	-1,001
2268,979	-0,08	-1,276
2279,73	-0,76	-1,59
2290,476	-1,56	-1,825
2301,227	-1,92	-2,028
2312,008	-1,48	-1,87
2322,742	-2,5	-2,312
2333,487	-2,82	-2,467
2344,244	-2,72	-2,407
2355,008	-3,44	-2,562
2365,771	-6,8	-3,343
2376,523	-7,84	-3,458
2387,268	-8,48	-3,497
2398,013	-8,4	-3,466
2408,783	-6,58	-2,899
2419,528	-4,9	-2,718
2430,268	-2,76	-2,266
2441,025	-0,9	-1,704
2451,77	-0,06	-1,326
2462,528	0,5	-1,057
2473,279	0,72	-0,902
2484,054	1,2	-0,698
2494,806	1,56	-0,569
2505,557	2,12	-0,246
2516,297	3,4	-0,09
2527,066	3,86	-0,05
2537,793	3,64	-0,062
2548,551	3,84	-0,046
2559,308	3,76	-0,054
2570,048	3,42	-0,068
2580,793	4,02	-0,033
2591,544	4,16	-0,011
2602,308	4,2	-0,008
2613,047	4,18	-0,005
2623,786	4,18	-0,005
2634,532	4,16	-0,002
2645,295	4,14	-0,001
2656,035	4,1	-0,001
2666,786	4,1	0
2677,537	4,06	0
2688,289	4,04	-0,001
2699,04	4,04	0
2709,804	4,02	-0,026
2720,567	3,4	-0,382
2731,324	2,42	-0,566
2742,07	2,32	-0,622
2752,821	3,04	-0,548
2763,584	2,12	-0,592
2774,342	2,94	-0,42
2785,093	3,68	-0,24
2795,845	3,92	-0,063
2806,59	3,9	-0,125
2817,335	3,9	-0,223
2828,081	3,12	-0,409
2838,844	3,26	-0,438
2849,596	2,8	-0,549
2860,353	2,1	-0,665
2871,104	1,64	-0,797
2881,874	0,42	-1,165
2892,631	0,68	-1,03
2903,388	0,28	-1,188
2914,146	-0,06	-1,323
2924,918	-0,7	-1,731
2935,637	-0,62	-1,762
2946,418	-1,42	-2,146
2957,175	-2,04	-2,459
2967,909	-2,84	-2,772
2978,666	-3,84	-3,206
2989,424	-4,54	-3,333
3000,181	-5,3	-3,41
3010,944	-6,2	-3,484
3021,69	-6,36	-3,493
3032,435	-6,34	-3,498
3043,174	-6,32	-3,499
3053,932	-6,26	-3,5
3064,695	-6,2	-3,21
3075,435	-5,74	-3,12
3086,192	-4,64	-2,978
3096,949	-3,46	-2,743
3107,701	-3,42	-2,782
3118,536	-1,4	-2,038
3129,468	0,2	-1,106
3140,381	2,58	-0,078
3151,138	3,44	-0,034
3161,902	3,66	-0,011
3173,187	-0,96	-2,024
3184,076	-3,16	-2,98
3194,918	-5,72	-3,457
3205,933	-6	-3,5
3216,997	-0,8	-1,761
3221,94	3,68	-0,001