Folder: Data-filter--cyclical-tests-BEPE-project-/Cycling_tests/_50perc/_2gap/entrada

Note: README.md
# Data filter (cyclical tests BEPE project)
python aplication to treat data get by fatigue testing machine

File: _1.txt
Time (s)	Load (N)	Displacement (mm)
0	0	-0,035
1,994	0,5	-0,003
3,94	0,5	-0,065
5,98	-0,5	-0,202
7,852	-7,5	-1,49
9,928	-9,5	-1,75
11,818	-18	-2,995
13,665	-19,5	-3,495
15,549	-15,5	-3,306
17,409	-7	-1,946
19,299	-0,5	-0,69
21,159	1,5	-0,004
23,043	0	-0,201
24,939	-5,5	-1,394
26,829	-14,5	-2,59
28,743	-19	-3,499
30,609	-18	-3,448
32,463	-9	-2,335
34,328	-2	-1,046
36,272	1,5	-0,012
151,694	-2,5	-1,2
153,577	2	0
155,434	2	-0,044
157,393	0	-0,469
159,223	-8	-1,973
161,167	-13,5	-2,88
163,087	-16,5	-3,498
164,965	-14,5	-3,406
166,843	-6,5	-2,275
168,697	-1	-0,875
170,617	2	-0,001
172,5	1,5	-0,028
174,378	-1,5	-0,788
176,202	-9,5	-2,273
178,176	-15	-3,049
180,078	-16,5	-3,497
181,968	-15	-3,414
183,816	-6,5	-2,278
185,688	-1,5	-0,984
187,584	2	0
339,669	-4	-1,507
341,499	-14,5	-3,044
343,353	-15	-3,494
345,183	-9	-2,934
347,12	-4,5	-1,994
348,986	0	-0,688
350,942	2	-0,001
352,778	1,5	-0,075
354,62	-3	-1,173
356,588	-6	-1,901
358,43	-15	-3,275
360,404	-15	-3,498
362,252	-13	-3,396
364,095	-5,5	-2,17
366,067	-3	-1,46
367,885	2	0
369,853	2	-0,005
371,707	0	-0,282
373,663	-2	-1,101
375,505	-9,5	-2,48
451,616	-14,5	-3,195
453,452	-15	-3,49
455,402	-12,5	-3,387
457,238	-4,5	-2,139
459,062	0	-0,76
460,886	2,5	-0,005
462,74	0	-0,323
464,552	-4,5	-1,848
466,532	-9,5	-2,591
468,397	-15	-3,499
470,239	-13,5	-3,431
472,075	-5,5	-2,318
473,899	0	-0,827
475,831	2,5	0
477,679	2	-0,045
479,491	-2,5	-1,348
481,435	-7,5	-2,294
483,277	-14,5	-3,499
485,107	-13,5	-3,422
487,044	-6,5	-2,616
563,444	-12	-3,345
565,382	-6	-2,472
567,212	-1	-0,972
569,024	2,5	-0,003
570,86	0,5	-0,296
572,695	-4	-1,754
574,657	-9	-2,528
576,487	-14,5	-3,496
578,323	-10,5	-3,208
580,129	-3	-1,669
582,073	0	-0,741
583,927	2,5	-0,002
585,745	0,5	-0,247
587,683	-1	-1,106
589,531	-8,5	-2,505
591,354	-14,5	-3,497
593,178	-11,5	-3,308
595,002	-3,5	-1,885
596,844	1,5	-0,502
598,794	2	-0,001
711,342	-9	-3,042
713,273	-5	-2,167
715,121	-1	-0,862
716,945	2	-0,003
718,763	0,5	-0,274
720,713	-1,5	-1,079
722,555	-7,5	-2,38
724,385	-14,5	-3,499
726,197	-11	-3,366
728,135	-6	-2,523
729,965	-1,5	-1,131
731,8	2,5	-0,001
733,636	1,5	-0,086
735,454	-2	-1,359
737,398	-6	-2,203
739,234	-14	-3,499
741,07	-13,5	-3,442
742,894	-5	-2,199
744,712	0	-0,706
746,656	2	0
859,251	-6,5	-2,735
861,087	-2	-1,293
862,917	2	0
864,759	2	-0,047
866,577	-1,5	-1,186
868,395	-10,5	-2,76
870,332	-14	-3,499
872,15	-12	-3,416
873,986	-4,5	-2,25
875,81	-0,5	-0,844
877,622	2,5	-0,004
879,56	2	-0,056
881,384	-1,5	-1,258
883,226	-9	-2,621
885,05	-14	-3,498
886,898	-11,5	-3,395
888,721	-4	-2,08
890,539	0,5	-0,691
892,471	2,5	0
894,301	1,5	-0,061
1006,495	0,5	-0,384
1008,313	-4,5	-2,011
1010,263	-10,5	-2,889
1012,08	-13,5	-3,492
1013,91	-7	-2,85
1015,74	-2	-1,324
1017,576	2,5	-0,001
1019,412	2	-0,071
1021,23	-2,5	-1,434
1023,042	-12	-3,004
1024,854	-13,5	-3,487
1026,684	-6	-2,662
1028,495	-1,5	-1,083
1030,319	2,5	-0,002
1032,125	0,5	-0,171
1034,081	-0,5	-0,93
1035,887	-8	-2,518
1037,693	-13,5	-3,496
1039,517	-9	-3,157
1041,335	-2,5	-1,652
1043,141	2,5	-0,078
1044,947	2	-0,039
1046,77	-1	-1,14
1048,588	-9,5	-2,684
1050,406	-13,5	-3,496
1052,23	-9,5	-3,19
1054,042	-2,5	-1,648
1055,854	2,5	-0,098
1057,672	2,5	-0,035
1059,484	-1,5	-1,156
1061,302	-9	-2,65
1063,107	-13	-3,496
1064,937	-10	-3,296
1066,743	-3	-1,76
1068,555	2,5	-0,221
1070,373	2	-0,028
1072,191	-0,5	-1,008
1074,015	-7,5	-2,491
1075,827	-13,5	-3,498
1077,633	-9,5	-3,239
1079,571	-4,5	-2,306
1081,388	0	-0,858
1083,212	2,5	-0,003
1085,03	0	-0,479
1086,848	-4,5	-2,096
1088,654	-13,5	-3,5
1090,484	-12,5	-3,45
1092,296	-4,5	-2,328
1094,126	0	-0,867
1095,944	2,5	-0,003
1097,761	0,5	-0,319
1099,585	-3,5	-1,814
1101,403	-13	-3,233
1103,227	-13	-3,483
1105,045	-5	-2,536
1106,857	0	-0,921
1108,669	2,5	-0,003
1110,625	2	-0,049
1112,431	-1,5	-1,356
1114,243	-11	-2,929
1553,435	-0,5	-0,893
1555,241	-6	-2,428
1557,065	-12,5	-3,498
1558,871	-9	-3,279
1560,683	-2,5	-1,802
1562,495	2,5	-0,285
1564,307	2,5	-0,022
1566,119	-0,5	-0,999
1567,931	-7,5	-2,525
1569,743	-12,5	-3,498
1571,548	-9	-3,236
1573,498	-4,5	-2,398
1575,31	0	-0,852
1577,122	2,5	-0,004
1578,934	0	-0,43
1580,746	-4	-1,939
1582,57	-13	-3,474
1584,37	-12	-3,444
1586,188	-4	-2,253
1588,006	0	-0,816
1589,811	2,5	-0,005
1591,623	0	-0,553
1593,447	-4,5	-2,046
1595,259	-12,5	-3,5
1597,065	-11,5	-3,425
1598,871	-3	-2,105
1600,683	0,5	-0,606
1602,507	2,5	-0,007
1604,319	0	-0,776
1606,13	-5,5	-2,27
1607,942	-12,5	-3,499
1609,754	-10	-3,322
1611,56	-2,5	-1,671
1613,372	2,5	-0,08
1615,31	2,5	-0,006
1617,122	0	-0,554
1618,94	-4,5	-2,086
1620,752	-12,5	-3,499
1622,575	-11	-3,401
1624,381	-3	-2,079
1808,055	1	-0,123
1809,867	-2	-1,482
1811,673	-11	-2,958
1813,485	-12,5	-3,491
1815,291	-5,5	-2,763
1817,1	-1	-1,214
1818,908	2,5	-0,001
1820,852	2,5	-0,014
1822,676	0	-0,714
1824,482	-5	-2,232
1826,294	-12,5	-3,499
1828,106	-10,5	-3,39
1829,918	-3	-2,074
1831,73	1,5	-0,469
1833,541	2,5	-0,012
1835,347	0	-0,805
1837,171	-5,5	-2,287
1838,977	-12,5	-3,499
1840,789	-10	-3,384
1842,601	-3	-1,92
1844,551	-0,5	-1,011
1846,375	3	-0,002
1848,181	0,5	-0,25
1849,999	-3,5	-1,805
1851,816	-12,5	-3,4
1853,622	-12	-3,461
1855,434	-4	-2,388
1857,252	0	-0,872
1859,052	2,5	-0,004
1860,858	0	-0,549
1862,67	-4,5	-2,138
1864,476	-12,5	-3,499
1866,288	-10,5	-3,429
1868,231	-5	-2,735
1870,037	-1	-1,266
1871,843	3	-0,001
1873,661	1,5	-0,149
1875,473	-2	-1,526
1877,285	-12	-3,121
1879,103	-12,5	-3,487
3150,55	-2,5	-2,546
3152,356	0	-0,997
3154,168	2,5	-0,002
3155,974	0,5	-0,28
3157,78	-1	-1,88
3159,592	-7	-3,393
3161,398	-6,5	-3,455
3163,204	-2	-2,232
3165,015	0,5	-0,702
3166,821	2,5	-0,007
3168,633	0	-0,642
3170,439	-2	-2,23
3172,257	-7,5	-3,499
3174,069	-5	-3,314
3175,875	-1,5	-1,932
3177,687	1,5	-0,46
3179,493	2	-0,014
3179,709	2,5	0

File: _2.txt
Time (s)	Load (N)	Displacement (mm)
0	0	-0,027
10,677	1	-0,084
23,966	-12	-2,773
34,628	-9	-2,275
45,289	-6	-1,798
55,98	-4,5	-1,551
66,654	-5	-1,698
77,321	-9	-2,475
88,007	-13,5	-3,202
98,692	-16	-3,428
109,365	-16,5	-3,478
120,039	-16,5	-3,488
130,712	-16,5	-3,492
141,392	-16,5	-3,494
152,053	-16,5	-3,496
162,72	-16	-3,498
173,394	-16	-3,499
184,061	-16	-3,499
194,729	-15,5	-3,5
205,396	-15,5	-3,483
216,063	-15,5	-3,401
226,737	-14,5	-3,08
237,398	-12	-2,798
248,071	-9	-2,343
258,745	-6	-1,913
269,424	-3	-1,326
280,086	-0,5	-0,634
290,765	1	-0,096
301,45	1,5	-0,02
312,118	2	-0,011
322,791	2	-0,001
333,477	1,5	0
344,156	1,5	-0,352
354,835	0,5	-0,567
365,503	-0,5	-0,822
376,182	-2,5	-1,351
386,861	-3,5	-1,783
397,553	-5,5	-2,222
408,244	-6,5	-2,469
418,93	-7	-2,554
429,609	-7,5	-2,668
440,294	-10,5	-3,204
450,986	-12,5	-3,39
461,677	-14	-3,472
472,375	-14,5	-3,495
483,054	-14,5	-3,497
493,745	-14,5	-3,499
504,449	-14	-3,36
515,146	-12,5	-2,997
525,82	-9	-2,594
536,505	-7,5	-2,328
547,196	-5,5	-2,065
557,9	-4	-1,794
568,585	-3	-1,619
579,271	-2	-1,202
589,95	-0,5	-0,864
600,659	0,5	-0,368
611,357	1	-0,155
622,036	1,5	-0,083
632,715	1,5	-0,039
643,401	2	-0,01
654,092	2	-0,004
664,766	2	-0,003
675,451	2	0
686,118	2	-0,309
696,798	1,5	-0,471
707,483	0	-0,812
718,199	-1,5	-1,178
728,896	-2,5	-1,557
739,575	-3,5	-1,926
750,261	-5,5	-2,472
760,964	-8,5	-3,046
771,661	-11,5	-3,361
782,353	-13	-3,453
793,032	-13	-3,467
803,724	-13,5	-3,488
814,421	-13,5	-3,484
825,13	-13,5	-3,493
835,822	-13,5	-3,496
846,501	-13,5	-3,499
857,211	-13,5	-3,471
867,914	-13	-3,219
878,617	-12	-3,09
889,321	-9	-2,639
900,03	-6	-2,237
910,74	-5	-2,074
921,425	-4	-1,848
932,128	-4	-1,764
942,82	-2,5	-1,452
953,517	-1,5	-1,301
964,19	-1,5	-1,17
974,882	-1	-0,965
985,573	-0,5	-0,782
996,277	0	-0,527
1006,98	0,5	-0,214
1017,659	1	-0,13
1028,357	1	-0,104
1039,042	1,5	-0,086
1049,74	-0,5	-0,86
1060,443	-2	-1,429
1071,14	-7	-2,419
1081,82	-13	-3,401
1092,505	-13	-3,498
1103,185	-13	-3,495
1113,882	-12,5	-3,473
1124,567	-8,5	-3,076
1135,259	-9,5	-3,195
1145,95	-3,5	-2,039
1156,636	-2,5	-1,704
1167,333	-2	-1,524
1178,036	-0,5	-0,848
1188,722	2	-0,128
1199,443	0	-0,693
1210,152	-1	-0,998
1220,832	-2	-1,43
1231,517	-2,5	-1,674
1242,209	-3	-1,858
1252,912	-3	-1,788
1263,603	-3	-1,834
1274,307	-2,5	-1,748
1285,01	-3	-1,913
1295,702	-3	-1,952
1306,387	-4	-2,18
1317,06	-3,5	-2,057
1327,752	-3	-1,889
1338,443	-0,5	-0,983
1349,153	-0,5	-0,942
1359,838	-0,5	-0,868
1370,541	-1	-1,065
1381,221	-1	-1,047
1391,906	-1	-1,151
1402,591	-2	-1,421
1413,295	-2	-1,404
1423,968	-1	-1,094
1434,654	-1	-1,2
1445,339	-1,5	-1,365
1456,03	-1,5	-1,49
1466,704	-2	-1,653
1477,383	-3	-1,888
1488,081	-3,5	-2,107
1498,808	-4,5	-2,381
1509,499	-6	-2,724
1520,197	-7	-2,896
1530,882	-8,5	-3,177
1541,58	-9	-3,259
1552,271	-8,5	-3,148
1562,956	-9,5	-3,326
1573,66	-9,5	-3,304
1584,363	-7,5	-3,094
1595,054	-7,5	-3,043
1605,758	-7	-2,995
1616,449	-7,5	-3,009
1627,141	-8	-3,182
1637,838	-10	-3,353
1648,523	-11,5	-3,452
1659,209	-12	-3,471
1669,906	-12	-3,48
1680,586	-12	-3,488
1691,271	-12	-3,491
1701,974	-12	-3,496
1712,666	-12	-3,497
1723,357	-12	-3,496
1734,043	-12	-3,496
1744,728	-12,5	-3,497
1755,431	-12	-3,495
1766,123	-12	-3,497
1776,82	-12,5	-3,495
1787,499	-12	-3,495
1798,185	-12	-3,489
1808,888	-12	-3,494
1819,58	-12	-3,49
1830,271	-12	-3,491
1840,968	-12	-3,491
1851,672	-12	-3,494
1862,351	-12	-3,492
1873,043	-12	-3,49
1883,728	-12	-3,489
1894,425	-12	-3,497
1905,117	-12	-3,498
1915,814	-12	-3,378
1926,506	-11,5	-3,082
1937,197	-9	-2,818
1947,87	-8	-2,73
1958,562	-6	-2,408
1969,253	-4	-2,049
1979,95	-3,5	-1,95
1990,642	-2,5	-1,592
2001,333	-2	-1,478
2012,031	-1	-1,066
2022,722	0	-0,692
2033,419	0	-0,361
2044,111	1	-0,24
2054,796	0	-0,714
2065,482	-0,5	-1,156
2076,167	-1	-1,114
2086,864	-2,5	-1,677
2097,562	-1,5	-1,405
2108,247	-1,5	-1,447
2118,933	-1	-1,314
2129,612	-0,5	-1,122
2140,303	0	-0,719
2150,995	1	-0,234
2161,68	2	-0,065
2172,371	2	-0,005
2183,069	2,5	0
2193,772	2	-0,131
2204,482	2	-0,001
2215,167	2	-0,018
2225,852	1,5	-0,085
2236,544	0	-0,36
2247,235	0	-0,462
2257,921	0	-0,745
2268,594	0	-0,864
2279,273	-0,5	-1,036
2289,959	0,5	-0,298
2300,656	2	-0,018
2311,348	2	-0,003
2322,051	2,5	-0,001
2332,748	2,5	-0,001
2343,428	2,5	-0,152
2354,119	2	-0,537
2364,816	-0,5	-0,997
2375,52	-1,5	-1,602
2386,217	-2,5	-2,204
2396,903	-4,5	-2,628
2407,594	-4,5	-2,721
2418,273	-4,5	-2,648
2428,959	-3,5	-2,324
2439,638	-2,5	-1,8
2450,33	-1	-1,143
2461,033	1,5	-0,493
2471,724	2,5	-0,002
2482,422	2	-0,022
2493,101	0	-0,523
2503,787	-1,5	-1,636
2514,478	-5,5	-2,58
2525,175	-10	-3,5
2535,867	-10	-3,486
2546,558	-4,5	-2,608
2557,261	-1	-1,502
2567,949	1	-0,481
2578,638	2,5	0
2589,342	2,5	-0,001
2600,021	2	-0,003
2610,706	2	-0,011
2621,404	1,5	-0,203
2632,101	0	-0,867
2642,793	-1	-1,609
2653,484	-3,5	-2,323
2664,193	-4,5	-2,501
2674,873	-10	-3,5
2685,57	-10	-3,495
2696,262	-6	-3,17
2706,953	-3,5	-2,493
2717,638	-5	-2,961
2728,324	-6,5	-3,271
2739,003	-7,5	-3,386
2749,707	-9	-3,469
2760,386	-9,5	-3,492
2771,065	-9,5	-3,498
2781,763	-9,5	-3,499
2792,448	-9,5	-3,496
2803,133	-9,5	-3,498
2813,825	-9,5	-3,42
2824,51	-8,5	-3,023
2835,196	-9	-3,5
2845,887	-9	-3,274
2856,572	-5,5	-2,808
2867,27	-3	-2,291
2877,961	-1	-1,74
2888,635	-0,5	-1,413
2899,32	0	-1,03
2910,011	0	-0,772
2920,709	0	-0,424
2931,4	0	-0,726
2942,097	0	-0,858
2952,783	0	-0,91
2963,468	0	-1,086
2974,172	0	-0,998
2984,863	0	-0,85
2995,554	0	-0,82
3006,246	0,5	-0,414
3016,943	1	-0,225
3027,635	1	-0,248
3038,326	1,5	-0,075
3049,017	2	-0,019
3059,709	1,5	-0,082
3070,406	0	-0,836
3081,086	0	-0,893
3091,771	0	-1,165
3102,456	-1	-1,979
3113,13	-7,5	-3,445
3123,815	-7	-3,5
3134,494	-7	-3,499
3145,18	-7,5	-3,499
3155,871	-7	-3,499
3166,563	-7	-3,476
3177,254	-7	-3,489
3187,951	-7	-3,472
3198,637	-7	-3,452
3203,929	2	0