Folder: Data-filter--cyclical-tests-BEPE-project-/Cycling_tests/com_TC/entrada

Note: README.md
# Data filter (cyclical tests BEPE project)
python aplication to treat data get by fatigue testing machine

File: _1.txt
Time (s)	Load (N)	Displacement (mm)
0	0	-0,037
10,6	3	-0,009
21,16	-2	-0,281
31,713	-10	-1,104
42,267	-22	-2,205
52,844	-26	-2,464
63,403	-23,5	-2,298
73,975	-21	-2,102
84,522	-17	-1,766
95,088	-16,5	-1,84
105,653	-21	-1,994
116,224	-21,5	-2,097
126,784	-25	-2,632
137,343	-34	-3,007
147,92	-34,5	-3,488
158,498	-34,5	-3,497
169,075	-33	-3,472
179,653	-24	-3,257
190,224	-20	-2,685
200,789	-11	-1,914
211,373	-3,5	-1,026
221,95	0,5	-0,629
232,522	3,5	-0,001
243,099	3	-0,047
253,652	-5,5	-0,914
264,242	-18,5	-2,114
274,831	-30,5	-3,105
285,403	-31	-3,498
295,992	-30,5	-3,478
306,599	-22,5	-3,091
317,201	-19,5	-2,808
327,784	-14	-2,325
338,368	-6	-1,447
348,945	-1	-0,758
359,528	3,5	0
370,112	4	-0,002
380,695	3,5	-0,006
391,267	3,5	-0,048
401,844	3,5	-0,054
412,439	-0,5	-0,385
423,017	-3	-0,696
433,594	-2,5	-0,679
444,178	-7,5	-1,317
454,767	-14	-1,925
465,362	-17	-2,232
475,958	-23	-2,699
486,541	-29	-3,432
497,143	-29	-3,498
507,726	-29,5	-3,496
518,297	-29	-3,484
528,899	-28	-3,45
539,488	-27	-3,429
550,077	-28	-3,448
560,685	-28	-3,455
571,268	-27,5	-3,453
581,846	-24,5	-3,42
592,453	-27	-3,428
603,043	-20	-3,168
613,626	-17,5	-2,781
624,221	-16,5	-2,792
634,811	-20	-2,945
645,388	-23	-3,261
655,977	-23	-3,251
666,579	-25	-3,356
677,162	-24	-3,333
687,758	-26,5	-3,436
698,341	-23,5	-3,339
708,924	-17,5	-2,791
719,526	-19	-2,928
730,121	-18	-2,941
740,717	-17	-2,831
751,3	-16,5	-2,84
761,895	-15	-2,688
772,485	-18	-2,872
783,068	-21	-3,154
793,646	-19	-2,976
804,229	-15	-2,682
814,818	-16	-2,677
825,408	-16,5	-2,801
835,991	-19	-2,999
846,569	-20	-3,107
857,158	-18,5	-2,897
867,729	-14	-2,667
878,307	-20	-3,131
888,896	-21,5	-3,177
899,468	-20	-3,096
910,051	-22	-3,349
920,646	-25,5	-3,448
931,242	-27,5	-3,492
941,825	-27,5	-3,496
952,409	-27,5	-3,498
962,986	-27,5	-3,499
973,575	-27	-3,456
984,153	-27,5	-3,499
994,736	-27	-3,258
1005,32	-26	-3,1
1015,897	-26	-3,12
1026,474	-26,5	-3,178
1037,052	-27	-3,323
1047,641	-26,5	-3,112
1058,23	-27	-3,498
1068,82	-27	-3,498
1079,409	-27	-3,5
1090,011	-27	-3,185
1100,594	-27	-3,322
1111,183	-27	-3,5
1121,773	-27	-3,498
1132,362	-27	-3,493
1142,946	-26	-3,457
1153,523	-23,5	-3,355
1164,124	-23,5	-3,429
1174,72	-26	-3,464
1185,297	-26	-3,478
1195,887	-27	-3,494
1206,47	-27	-3,497
1217,053	-26,5	-3,5
1227,631	-25,5	-3,056
1238,208	-21,5	-2,735
1248,792	-19	-2,58
1259,375	-15	-2,32
1269,97	-11,5	-2,01
1280,536	-13	-2,085
1291,125	-9,5	-1,784
1301,697	-5,5	-1,359
1312,292	-2,5	-0,885
1322,869	-1	-0,681
1333,453	1	-0,202
1344,024	3	-0,069
1354,608	4	-0,032
1365,203	3,5	-0,035
1375,786	4	-0,019
1386,37	4	-0,012
1396,953	4,5	-0,006
1407,555	4,5	-0,004
1418,132	4,5	-0,004
1428,721	4,5	-0,014
1439,311	4	-0,03
1449,882	4	-0,015
1460,465	4,5	-0,006
1471,043	4,5	-0,002
1481,614	4	0
1492,198	3,5	-0,304
1502,781	-1	-0,79
1513,364	-3,5	-1,279
1523,954	-5	-1,649
1534,525	-7,5	-2,004
1545,097	-12	-2,523
1555,686	-13,5	-2,812
1566,269	-17	-3,064
1576,853	-23	-3,383
1587,442	-24,5	-3,459
1598,032	-25	-3,474
1608,609	-25	-3,488
1619,18	-25	-3,496
1629,758	-25	-3,499
1640,359	-25	-3,499
1650,931	-25	-3,489
1661,496	-25	-3,352
1672,073	-25	-3,222
1682,663	-21	-2,816
1693,234	-20,5	-2,801
1703,818	-19	-2,659
1714,407	-14,5	-2,357
1725,002	-14	-2,383
1735,58	-13,5	-2,311
1746,169	-10	-2,005
1756,747	-8	-1,823
1767,324	-4,5	-1,484
1777,901	-4,5	-1,409
1788,479	-4,5	-1,424
1799,056	-4,5	-1,49
1809,628	-3,5	-1,248
1820,199	-2	-0,984
1830,776	-1,5	-0,918
1841,354	-0,5	-0,72
1851,931	0	-0,409
1862,509	1,5	-0,156
1873,08	3	-0,093
1883,663	4	-0,03
1894,247	4,5	-0,012
1904,818	4,5	-0,011
1915,395	4,5	-0,004
1925,967	4,5	-0,003
1936,532	4,5	-0,002
1947,11	4,5	-0,003
1957,693	4,5	-0,001
1968,27	4,5	-0,001
1978,836	4,5	-0,001
1989,413	4,5	0
1999,985	4,5	-0,194
2010,55	4,5	-0,175
2021,127	3	-0,429
2031,693	1,5	-0,626
2042,27	-0,5	-0,856
2052,848	-1,5	-1,146
2063,437	-3	-1,637
2074,02	-5	-2,086
2084,604	-8	-2,649
2095,181	-11	-3,123
2105,753	-14	-3,359
2116,318	-16,5	-3,46
2126,889	-17	-3,488
2137,449	-16,5	-3,497
2148,02	-16,5	-3,5
2158,592	-16	-3,162
2169,163	-13,5	-2,94
2179,74	-9,5	-2,625
2190,312	-8	-2,545
2200,883	-5	-2,09
2211,461	-3,5	-1,854
2222,038	-1,5	-1,469
2232,615	-0,5	-1,202
2243,193	0	-0,934
2253,776	0	-0,774
2264,354	1,5	-0,439
2274,931	3	-0,148
2285,508	4,5	-0,027
2296,08	4,5	-0,005
2306,657	4,5	-0,002
2317,235	4,5	0
2327,812	4,5	-0,179
2338,383	4	-0,248
2348,961	3	-0,519
2359,532	2,5	-0,527
2370,11	3,5	-0,45
2380,687	0,5	-0,739
2391,264	-0,5	-1,034
2401,83	-1,5	-1,388
2412,401	-2,5	-1,766
2422,973	-3	-1,934
2433,55	-4,5	-2,467
2444,127	-5,5	-2,634
2454,705	-5	-2,535
2465,276	-4,5	-2,501
2475,841	-3,5	-2,221
2486,419	-3	-2,041
2497,002	-2	-1,744
2507,586	-2	-1,627
2518,163	-1,5	-1,426
2528,734	-1	-1,255
2539,306	-0,5	-1,083
2549,883	-1	-1,128
2560,461	-1	-1,204
2571,026	0	-0,891
2581,603	-0,5	-1,121
2592,169	-1	-1,521
2602,758	-2,5	-2,002
2613,336	-3,5	-2,366
2623,919	-5	-2,828
2634,502	-8	-3,272
2645,098	-11,5	-3,445
2655,663	-12,5	-3,481
2666,241	-12,5	-3,491
2676,83	-12,5	-3,498
2687,419	-12,5	-3,499
2697,991	-12	-3,163
2708,568	-7,5	-2,857
2719,158	-5,5	-2,674
2729,741	-2,5	-2,157
2740,33	-1	-1,782
2750,902	0	-1,544
2761,485	0,5	-0,858
2772,063	1,5	-0,52
2782,646	2	-0,243
2793,229	3,5	-0,072
2803,807	4	-0,029
2814,384	4,5	-0,011
2824,962	4,5	-0,004
2835,539	4,5	-0,002
2846,122	4,5	0
2856,706	4,5	-0,152
2867,277	3,5	-0,368
2877,848	0	-0,82
2888,432	-0,5	-1,155
2899,009	-1,5	-1,716
2909,587	-2,5	-2,211
2920,164	-4,5	-2,862
2930,747	-7	-3,261
2941,337	-7	-3,304
2951,908	-8,5	-3,383
2962,486	-10	-3,447
2973,069	-10,5	-3,486
2983,658	-10,5	-3,498
2994,242	-10,5	-3,479
3004,813	-8	-3,031
3015,385	-7	-2,98
3025,968	-5,5	-2,81
3036,539	-5	-2,864
3047,117	-6	-2,926
3057,7	-8,5	-3,097
3068,266	-7,5	-3,022
3078,855	-4	-2,72
3089,438	-2	-2,364
3100,016	-1,5	-2,235
3110,593	0	-1,834
3121,165	0	-1,431
3131,754	1,5	-0,699
3142,325	2	-0,239
3152,897	3,5	-0,074
3163,474	4	-0,014
3169,888	4,5	-0,001

File: _3.txt
Time (s)	Load (N)	Displacement (mm)
0	0	-0,036
10,606	1,5	0
21,118	1,5	-0,002
31,647	2	-0,005
42,158	2,5	-0,007
52,688	2,5	-0,005
63,229	2,5	-0,005
73,843	2,5	-0,004
84,384	2,5	-0,01
94,907	2,5	-0,027
105,455	1,5	-0,057
115,996	2	-0,054
126,537	2	-0,048
137,091	2	-0,03
147,68	2,5	-0,02
158,234	2,5	-0,035
168,805	3	-0,025
179,358	2	-0,035
189,93	2,5	-0,027
200,519	3	-0,013
211,079	3	-0,015
221,638	3	-0,012
232,185	3	-0,014
242,751	3	-0,02
253,316	3	-0,017
263,906	3	-0,015
274,471	3	-0,01
285,054	3,5	-0,004
295,632	3,5	-0,004
306,215	3,5	-0,004
316,775	3,5	-0,012
327,346	3,5	-0,005
337,947	3,5	-0,002
348,525	3,5	-0,001
359,09	3	-0,002
369,674	3	-0,001
380,245	3,5	-0,006
390,816	3,5	-0,006
401,388	3,5	-0,001
411,971	1	-0,494
422,543	-3,5	-1,024
433,12	-5	-1,26
443,703	-8,5	-1,776
454,275	-10	-1,944
464,858	-10	-1,95
475,417	-9,5	-1,882
485,983	-10,5	-2,075
496,554	-14	-2,381
507,126	-19	-2,837
517,709	-23	-3,208
528,293	-27,5	-3,429
538,876	-29,5	-3,491
549,441	-29,5	-3,497
560,019	-29,5	-3,499
570,578	-29	-3,242
581,143	-22,5	-2,711
591,715	-18	-2,186
602,292	-11	-1,642
612,864	-5,5	-1,144
623,441	-3	-0,775
634,024	0	-0,255
644,59	1,5	-0,108
655,155	3,5	-0,021
665,727	3,5	-0,008
676,37	3,5	-0,001
686,947	3,5	-0,057
697,507	3,5	-0,179
708,084	3,5	-0,247
718,662	2,5	-0,395
729,221	0	-0,668
739,78	-1,5	-0,793
750,34	-2	-0,833
760,917	-4,5	-1,266
771,471	-6	-1,446
782,048	-8	-1,739
792,637	-9,5	-1,934
803,197	-10,5	-2,161
813,756	-13	-2,449
824,322	-15,5	-2,732
834,881	-20,5	-3,088
845,446	-24,5	-3,371
856,006	-27	-3,454
866,565	-28	-3,49
877,137	-28	-3,494
887,702	-28,5	-3,498
898,261	-28	-3,5
908,827	-28	-3,214
919,392	-24,5	-2,915
929,964	-19,5	-2,448
940,523	-13,5	-1,989
951,082	-11	-1,661
961,66	-5,5	-1,176
972,225	-4,5	-0,974
982,778	-3	-0,895
993,344	-3	-0,772
1003,897	-2,5	-0,778
1014,463	-3	-0,815
1025,04	-1,5	-0,536
1035,587	-1	-0,44
1046,147	-3	-0,784
1056,706	-4	-0,952
1067,26	-4,5	-1,044
1077,825	-5	-1,129
1088,384	-6,5	-1,291
1098,956	-4,5	-1,054
1109,533	-2	-0,664
1120,099	0	-0,222
1130,664	2	-0,109
1141,223	3	-0,046
1151,789	3,5	-0,014
1162,354	3,5	-0,009
1172,926	4	-0,006
1183,485	3,5	-0,006
1194,038	3,5	-0,006
1204,604	4	-0,004
1215,175	3,5	-0,003
1225,735	3,5	-0,001
1236,288	3,5	-0,002
1246,847	4	-0,001
1257,401	3,5	-0,052
1267,948	3	-0,354
1278,508	0	-0,627
1289,061	0,5	-0,6
1299,626	0	-0,744
1310,204	-2	-0,97
1320,769	-2,5	-1,038
1331,329	-2,5	-1,02
1341,894	-4	-1,286
1352,453	-4,5	-1,432
1363,031	-5,5	-1,54
1373,584	-5,5	-1,608
1384,15	-5,5	-1,63
1394,715	-5	-1,545
1405,292	-4,5	-1,467
1415,846	-5	-1,546
1426,405	-4,5	-1,367
1436,965	-3,5	-1,263
1447,53	-3	-1,131
1458,083	-1,5	-0,863
1468,637	-2,5	-1,032
1479,208	-4,5	-1,436
1489,768	-5,5	-1,671
1500,327	-6	-1,747
1510,88	-10	-2,219
1521,428	-9	-2,178
1531,987	-10	-2,297
1542,535	-9,5	-2,268
1553,082	-12	-2,458
1563,647	-12	-2,48
1574,207	-12	-2,445
1584,766	-11,5	-2,452
1595,325	-12,5	-2,557
1605,885	-12,5	-2,558
1616,438	-12	-2,477
1626,986	-10,5	-2,372
1637,545	-10	-2,342
1648,104	-8,5	-2,132
1658,658	-7,5	-2,019
1669,217	-9	-2,164
1679,771	-9	-2,121
1690,336	-7	-1,908
1700,901	-5	-1,59
1711,461	-3	-1,152
1722,02	-0,5	-0,743
1732,58	4	-0,142
1743,139	4	-0,001
1753,692	4	-0,001
1764,246	4	-0,002
1774,805	4	-0,002
1785,371	4	-0,011
1795,918	3,5	-0,035
1806,471	0,5	-0,23
1817,025	-1	-0,686
1827,59	-2	-0,924
1838,15	-3	-1,11
1848,697	-4,5	-1,348
1859,256	-5,5	-1,462
1869,816	-6	-1,561
1880,381	-5,5	-1,603
1890,935	-5,5	-1,525
1901,488	-4,5	-1,37
1912,047	-6	-1,64
1922,613	-6	-1,836
1933,16	-8,5	-2,164
1943,714	-11	-2,475
1954,267	-12	-2,566
1964,826	-14,5	-2,824
1975,386	-17	-3,036
1985,933	-14	-2,855
1996,487	-13,5	-2,754
2007,052	-12,5	-2,785
2017,605	-16,5	-3,026
2028,159	-15	-2,947
2038,706	-14,5	-2,974
2049,248	-17,5	-3,456
2059,813	-17,5	-3,5
2070,372	-17,5	-3,499
2080,932	-17,5	-3,499
2091,491	-17,5	-3,498
2102,045	-17	-3,498
2112,598	-17,5	-3,499
2123,151	-17	-3,499
2133,711	-17	-3,5
2144,252	-17	-3,499
2154,806	-17	-3,499
2165,371	-16,5	-3,499
2175,942	-16,5	-3,445
2186,496	-16,5	-3,497
2197,049	-16,5	-3,499
2207,627	-16	-3,499
2218,18	-16	-3,498
2228,739	-16	-3,499
2239,281	-16,5	-3,498
2249,834	-16,5	-3,497
2260,387	-15,5	-3,495
2270,953	-15	-3,494
2281,5	-15	-3,485
2292,054	-15	-3,473
2302,607	-15	-3,487
2313,161	-15	-3,468
2323,72	-14,5	-3,456
2334,267	-14	-3,464
2344,827	-14,5	-3,468
2355,38	-14,5	-3,481
2365,94	-14,5	-3,486
2376,487	-14,5	-3,482
2387,04	-14,5	-3,482
2397,6	-14,5	-3,49
2408,147	-14	-3,491
2418,706	-14	-3,488
2429,272	-13,5	-3,497
2439,837	-13,5	-3,499
2450,385	-13,5	-3,499
2460,944	-13	-3,488
2471,503	-13	-3,426
2482,135	-8	-2,824
2492,688	-6,5	-2,645
2503,254	-5,5	-2,564
2513,813	-3,5	-2,266
2524,366	-2,5	-2
2534,926	-1,5	-1,844
2545,485	-1	-1,634
2556,051	-0,5	-1,56
2566,61	0	-1,382
2577,169	0	-1,258
2587,729	-0,5	-1,473
2598,288	-0,5	-1,439
2608,842	0	-1,483
2619,419	0	-1,514
2629,984	0	-1,449
2640,538	0	-1,47
2651,097	0	-1,363
2661,651	0	-1,411
2672,21	0	-1,194
2682,757	0	-1,048
2693,299	0,5	-0,848
2703,87	0,5	-0,818
2714,43	0	-1,082
2724,983	0	-1,471
2735,536	-2,5	-2,173
2746,102	-4	-2,549
2756,655	-5,5	-2,7
2767,203	-5,5	-2,795
2777,768	-6,5	-2,784
2788,315	-9	-2,949
2798,875	-8,5	-2,893
2809,434	-11,5	-3,115
2820,006	-8,5	-2,95
2830,565	-11	-3,14
2841,13	-11,5	-3,183
2851,69	-11,5	-3,17
2862,243	-11,5	-3,182
2872,796	-11	-3,222
2883,368	-11,5	-3,268
2893,927	-11,5	-3,199
2904,481	-11,5	-3,35
2915,04	-11,5	-3,5
2925,588	-11,5	-3,499
2936,153	-11,5	-3,496
2946,7	-11,5	-3,489
2957,254	-11	-3,467
2967,813	-10	-3,424
2978,366	-7,5	-3,322
2988,926	-8,5	-3,362
2999,485	-6	-3,151
3010,045	-4,5	-2,924
3020,604	-5,5	-3,042
3031,151	-4	-2,896
3041,705	-4	-2,778
3052,264	-2,5	-2,466
3062,824	-1,5	-1,952
3073,455	-2	-2,181
3084,032	-1,5	-1,901
3094,592	-1	-1,596
3105,151	-1,5	-1,716
3115,711	-1,5	-1,89
3126,282	-1,5	-1,923
3136,847	-1,5	-2,008
3147,407	-1,5	-1,904
3157,96	-1,5	-1,837
3166,06	4	-0,001

File: _5.txt
Time (s)	Load (N)	Displacement (mm)
0	0	-0,036
10,655	-0,5	-0,542
21,22	0,5	-0,462
31,78	2,5	-0,223
42,351	2,5	0
52,928	3	0
63,524	3	-0,001
74,113	3	-0,001
84,697	3	-0,003
95,28	3	-0,004
105,863	3	-0,011
116,465	3	-0,009
127,048	3	-0,016
137,632	3	-0,018
148,215	3	-0,024
158,798	2,5	-0,052
169,406	2	-0,067
180,007	3	-0,032
190,608	3	-0,034
201,21	3,5	-0,015
211,788	3	-0,015
222,377	3	-0,022
232,99	3,5	-0,014
243,591	3,5	-0,014
254,205	3,5	-0,004
264,818	3,5	-0,003
275,432	3,5	-0,002
286,045	3,5	-0,004
296,658	3,5	-0,002
307,272	3,5	-0,002
317,903	3,5	0
328,499	3,5	-0,195
339,13	0	-0,684
349,749	-4,5	-1,136
360,363	-8	-1,716
370,97	-12	-2,212
381,571	-16	-2,516
392,173	-15,5	-2,483
402,81	-22,5	-3,136
413,418	-27	-3,418
424,037	-28,5	-3,468
434,668	-29,5	-3,492
445,264	-29,5	-3,492
455,865	-29	-3,492
466,473	-29,5	-3,496
477,098	-29,5	-3,498
487,723	-29	-3,298
498,331	-23,5	-2,758
508,938	-17	-2,154
519,552	-10,5	-1,605
530,171	-5	-1,036
540,778	-2	-0,582
551,398	1	-0,128
562,017	3,5	-0,025
572,631	4	-0,006
583,256	3,5	-0,001
593,863	3,5	-0,29
604,477	-1,5	-0,735
615,084	-3	-1,02
625,704	-5,5	-1,466
636,323	-11,5	-2,167
646,942	-16	-2,645
657,562	-22,5	-3,25
668,175	-25,5	-3,382
678,788	-28	-3,479
689,408	-28,5	-3,496
700,027	-28,5	-3,499
710,653	-28,5	-3,056
721,272	-19,5	-2,566
731,891	-9	-1,621
742,505	-3	-0,859
753,112	1	-0,203
763,738	3,5	-0,022
774,363	4	-0,002
784,982	3,5	-0,148
795,608	0,5	-0,615
806,221	-3	-1,121
816,841	-5	-1,551
827,46	-6,5	-1,806
838,091	-11,5	-2,337
848,693	-17	-2,87
859,318	-20,5	-3,211
869,932	-23	-3,348
880,545	-25	-3,417
891,158	-26,5	-3,467
901,772	-25	-3,424
912,385	-27	-3,482
922,987	-27	-3,487
933,606	-27,5	-3,498
944,213	-27	-3,499
954,833	-27	-3,231
965,458	-18	-2,384
976,065	-10,5	-1,802
986,679	-7,5	-1,524
997,286	-5	-1,203
1007,894	-3	-0,949
1018,501	-2	-0,744
1029,114	-2	-0,749
1039,728	-2,5	-0,721
1050,347	-1	-0,479
1060,961	0,5	-0,219
1071,568	1,5	-0,143
1082,169	3	-0,069
1092,783	3,5	-0,043
1103,39	3,5	-0,039
1113,992	3,5	-0,023
1124,593	4	-0,01
1135,2	3,5	-0,004
1145,814	4	-0,001
1156,415	4	-0,023
1167,023	3	-0,264
1177,63	-0,5	-0,758
1188,249	-4	-1,252
1198,869	-6	-1,661
1209,482	-8,5	-2,024
1220,102	-15	-2,677
1230,715	-17,5	-3,12
1241,304	-18	-3,081
1251,918	-19,5	-3,335
1262,525	-24,5	-3,458
1273,127	-26	-3,486
1283,74	-26,5	-3,496
1294,335	-26,5	-3,498
1304,931	-26,5	-3,499
1315,532	-26,5	-3,45
1326,152	-23,5	-3,041
1336,765	-19	-2,561
1347,372	-12,5	-2,101
1357,98	-10	-1,848
1368,575	-7	-1,521
1379,182	-5,5	-1,322
1389,778	-4,5	-1,183
1400,397	-3	-0,901
1411,005	-1,5	-0,659
1421,594	-0,5	-0,55
1432,195	-0,5	-0,433
1442,809	2	-0,13
1453,41	2,5	-0,084
1464	3	-0,047
1474,607	3,5	-0,029
1485,214	3,5	-0,013
1495,816	4	-0,013
1506,411	4	-0,009
1517,013	4	-0,005
1527,62	4	-0,005
1538,221	4	-0,01
1548,823	4	-0,01
1559,43	4	-0,007
1570,026	4	-0,005
1580,615	4	-0,003
1591,216	4	-0,002
1601,83	4	-0,001
1612,431	4	-0,001
1623,033	4	-0,096
1633,64	3,5	-0,294
1644,235	1,5	-0,51
1654,837	0	-0,696
1665,444	-1	-0,852
1676,045	0	-0,725
1686,665	0	-0,708
1697,266	0,5	-0,627
1707,874	0,5	-0,592
1718,475	0	-0,62
1729,076	2,5	-0,438
1739,678	0,5	-0,608
1750,279	1,5	-0,544
1760,881	0	-0,666
1771,476	2,5	-0,535
1782,083	3,5	-0,302
1792,703	4	-0,001
1803,316	4	-0,008
1813,924	3,5	-0,023
1824,519	2	-0,091
1835,12	-1,5	-0,785
1845,722	-7,5	-1,775
1856,317	-18	-2,725
1866,907	-24	-3,479
1877,508	-24	-3,499
1888,103	-24	-3,498
1898,711	-24	-3,494
1909,318	-24	-3,491
1919,92	-23,5	-3,476
1930,515	-23,5	-3,477
1941,116	-23	-3,469
1951,718	-22	-3,454
1962,331	-22	-3,449
1972,945	-21	-3,431
1983,552	-20,5	-3,405
1994,147	-18,5	-3,383
2004,755	-19	-3,397
2015,356	-15,5	-3,328
2025,964	-18,5	-3,402
2036,571	-19,5	-3,442
2047,178	-17,5	-3,399
2057,774	-18,5	-3,435
2068,369	-18,5	-3,454
2078,958	-18	-3,475
2089,548	-18	-3,492
2100,155	-18	-3,498
2110,763	-17	-3,499
2121,358	-17	-3,361
2131,965	-14	-3,02
2142,579	-10,5	-2,721
2153,174	-8	-2,495
2163,788	-6	-2,335
2174,395	-4,5	-2,109
2184,991	-4,5	-2,108
2195,598	-3,5	-1,999
2206,193	-3	-1,854
2216,783	-3	-1,808
2227,372	-3	-1,852
2237,973	-1,5	-1,756
2248,593	-1	-1,587
2259,194	-1,5	-1,63
2269,784	-2,5	-1,718
2280,385	-2,5	-1,713
2290,998	-2	-1,758
2301,6	-2,5	-1,78
2312,195	-2	-1,768
2322,797	-2,5	-1,885
2333,404	-4,5	-2,185
2344,005	-5	-2,293
2354,613	-4	-2,253
2365,214	-5	-2,454
2375,822	-7	-2,628
2386,441	-7	-2,649
2397,054	-8	-2,86
2407,662	-10	-2,938
2418,269	-8	-2,898
2428,888	-7,5	-2,808
2439,514	-7,5	-2,811
2450,115	-12	-3,147
2460,717	-12	-3,256
2471,312	-12	-3,414
2481,913	-12	-3,47
2492,527	-12	-3,28
2503,134	-12	-3,432
2513,736	-11,5	-3,42
2524,355	-8,5	-3,02
2534,962	-5,5	-2,693
2545,552	-4	-2,498
2556,171	-1,5	-2,041
2566,767	-1	-1,87
2577,362	0	-1,634
2587,963	0	-1,305
2598,571	0,5	-1,131
2609,166	0,5	-1,035
2619,768	0,5	-1,054
2630,369	0	-1,284
2640,97	0	-1,318
2651,584	0,5	-1,248
2662,179	0,5	-1,225
2672,775	0,5	-1,18
2683,382	0,5	-1,13
2693,983	0,5	-1,173
2704,585	1	-1,056
2715,198	0,5	-1,071
2725,806	0,5	-1,319
2736,413	0	-1,571
2747,014	-1	-2,064
2757,622	-2	-2,345
2768,217	-7	-2,885
2778,813	-10,5	-3,274
2789,414	-10,5	-3,499
2800,027	-10,5	-3,496
2810,635	-10,5	-3,492
2821,248	-10,5	-3,481
2831,855	-8,5	-3,426
2842,457	-4,5	-3,091
2853,052	-3,5	-2,765
2863,666	-4	-2,846
2874,273	-3	-2,79
2884,874	-3	-2,603
2895,482	-2,5	-2,415
2906,095	-2,5	-2,422
2916,691	-2,5	-2,342
2927,304	-1	-1,663
2937,899	-0,5	-1,101
2948,501	1	-0,692
2959,108	3,5	-0,343
2969,716	4	-0,187
2980,329	4	-0,018
2990,924	4	-0,001
3001,526	4	-0,001
3012,121	4	-0,002
3022,723	4	-0,004
3033,336	4	-0,003
3043,937	4	-0,001
3054,545	4	-0,002
3065,152	4	-0,002
3075,76	4	-0,001
3086,361	4	-0,001
3096,968	4	-0,001
3107,558	4	-0,001
3118,165	4	-0,001
3128,772	4	-0,001
3139,38	4	-0,001
3149,981	4	-0,001
3160,583	4	0
3171,19	4	-0,064
3175,408	4	0

File: _6.txt
Time (s)	Load (N)	Displacement (mm)
0	0	-0,029
10,817	1,5	0
21,544	2	-0,002
32,283	2,5	-0,004
43,011	2,5	-0,004
53,75	2	-0,003
64,501	2,5	-0,002
75,247	3	-0,003
86,004	2,5	-0,002
96,768	2,5	-0,001
107,507	3	-0,001
118,252	3	-0,001
129,016	3	0
139,779	3	-0,152
150,549	1,5	-0,366
161,33	2	-0,395
172,075	2,5	-0,352
182,839	2,5	-0,339
193,602	1,5	-0,442
204,371	1,5	-0,395
215,129	2,5	-0,328
225,904	1	-0,438
236,697	0,5	-0,547
247,467	2	-0,445
258,236	2,5	-0,359
269,024	1,5	-0,428
279,805	0,5	-0,546
290,598	-1	-0,783
301,386	-3	-0,947
312,179	-4,5	-1,109
322,985	-7,5	-1,591
333,796	-11	-1,982
344,595	-16,5	-2,488
355,377	-19,5	-2,787
366,17	-22	-3,104
376,957	-24	-3,254
387,763	-28,5	-3,451
398,526	-29,5	-3,473
409,344	-29,5	-3,492
420,143	-30	-3,497
430,93	-29,5	-3,497
441,742	-29,5	-3,498
452,547	-29,5	-3,499
463,34	-29,5	-3,223
474,146	-23,5	-2,712
484,939	-21	-2,487
495,739	-19	-2,32
506,532	-15	-2,068
517,313	-14	-1,929
528,101	-14	-1,893
538,894	-13,5	-1,874
549,676	-9	-1,506
560,457	-7	-1,239
571,232	-7	-1,258
582,02	-3	-0,705
592,807	0,5	-0,202
603,588	2	-0,084
614,382	3,5	-0,015
625,175	3,5	-0,004
635,963	3,5	-0,001
646,774	3,5	-0,237
657,561	0	-0,649
668,331	-3	-0,993
679,124	-5,5	-1,406
689,906	-7,5	-1,737
700,687	-10	-2,041
711,468	-13	-2,377
722,262	-15,5	-2,619
733,037	-19,5	-3,073
743,819	-21,5	-3,253
754,618	-27	-3,466
765,405	-27	-3,48
776,205	-26,5	-3,455
786,98	-27	-3,479
797,773	-27,5	-3,482
808,555	-26,5	-3,464
819,354	-27	-3,464
830,129	-26,5	-3,462
840,905	-26	-3,447
851,698	-25,5	-3,452
862,474	-24,5	-3,411
873,255	-25	-3,433
884,037	-23,5	-3,377
894,818	-22,5	-3,391
905,599	-24,5	-3,43
916,387	-25,5	-3,453
927,174	-26	-3,47
937,955	-26	-3,47
948,731	-25	-3,442
959,512	-25,5	-3,454
970,294	-26	-3,47
981,093	-26,5	-3,476
991,868	-26	-3,472
1002,644	-24,5	-3,43
1013,437	-26,5	-3,462
1024,218	-26,5	-3,483
1035	-26	-3,472
1045,775	-26,5	-3,482
1056,557	-27	-3,49
1067,332	-27	-3,485
1078,113	-26,5	-3,479
1088,889	-26,5	-3,482
1099,664	-26,5	-3,488
1110,446	-26,5	-3,489
1121,227	-27	-3,495
1132,002	-27	-3,498
1142,784	-26,5	-3,499
1153,559	-26,5	-3,498
1164,358	-26,5	-3,499
1175,128	-26,5	-3,5
1185,903	-26,5	-3,373
1196,679	-26,5	-3,284
1207,454	-26,5	-3,242
1218,223	-24	-3,086
1228,999	-25	-2,992
1239,78	-20	-2,683
1250,55	-17,5	-2,433
1261,331	-13,5	-2,108
1272,1	-10,5	-1,869
1282,876	-11	-1,849
1293,639	-9	-1,758
1304,414	-9	-1,797
1315,19	-8,5	-1,598
1325,977	-6,5	-1,482
1336,747	-8	-1,584
1347,51	-8	-1,592
1358,279	-9	-1,731
1369,049	-10,5	-1,849
1379,812	-11	-1,894
1390,576	-12	-2,057
1401,357	-12,5	-2,073
1412,126	-14	-2,195
1422,902	-16,5	-2,294
1433,677	-14,5	-2,279
1444,44	-13,5	-2,188
1455,21	-13,5	-2,209
1465,985	-11	-2,025
1476,755	-11	-1,989
1487,536	-10	-1,865
1498,317	-9,5	-1,831
1509,099	-8,5	-1,672
1519,874	-7,5	-1,626
1530,65	-8,5	-1,665
1541,419	-9,5	-1,788
1552,2	-7,5	-1,697
1562,97	-8	-1,714
1573,727	-8,5	-1,741
1584,496	-6,5	-1,625
1595,278	-7	-1,66
1606,053	-7,5	-1,643
1616,811	-8,5	-1,777
1627,592	-9	-1,808
1638,379	-6,5	-1,617
1649,131	-8,5	-1,765
1659,912	-9	-1,924
1670,7	-9	-1,904
1681,463	-11	-2,068
1692,226	-11,5	-2,104
1703,002	-13	-2,248
1713,771	-15	-2,484
1724,546	-18	-2,576
1735,31	-18	-2,675
1746,079	-22	-2,93
1756,873	-20,5	-2,886
1767,636	-21	-2,889
1778,387	-21,5	-2,969
1789,157	-24	-3,217
1799,92	-23,5	-3,242
1810,684	-24	-3,447
1821,453	-23,5	-3,499
1832,222	-23,5	-3,5
1842,998	-23	-3,499
1853,779	-23	-3,499
1864,548	-23	-3,498
1875,324	-22,5	-3,495
1886,093	-22,5	-3,493
1896,863	-22	-3,462
1907,632	-20,5	-3,427
1918,395	-21	-3,45
1929,177	-20,5	-3,424
1939,964	-20	-3,426
1950,733	-20,5	-3,459
1961,509	-20,5	-3,456
1972,272	-21	-3,478
1983,042	-21	-3,483
1993,811	-20,5	-3,485
2004,58	-19,5	-3,49
2015,344	-19	-3,493
2026,119	-19	-3,494
2036,883	-18	-3,494
2047,658	-17,5	-3,489
2058,439	-17,5	-3,497
2069,209	-17	-3,498
2079,978	-17	-3,498
2090,765	-16,5	-3,498
2101,535	-16,5	-3,498
2112,31	-16,5	-3,497
2123,08	-16,5	-3,497
2133,861	-15,5	-3,5
2144,624	-16	-3,462
2155,394	-16	-3,5
2166,169	-15,5	-3,31
2176,945	-10,5	-2,816
2187,72	-5,5	-2,338
2198,489	-3	-1,866
2209,265	-1,5	-1,449
2220,04	0	-1,1
2230,822	0,5	-0,604
2241,591	1,5	-0,188
2252,372	3	-0,052
2263,154	3	-0,085
2273,941	3,5	-0,029
2284,71	4	-0,023
2295,492	4	-0,042
2306,267	3,5	-0,033
2317,037	3,5	-0,029
2327,818	4	-0,01
2338,581	4	-0,005
2349,351	4,5	-0,002
2360,12	4	-0,003
2370,889	4	-0,002
2381,659	4	-0,001
2392,422	4	0
2403,213	3,5	-0,369
2413,967	4	-0,001
2424,754	4	-0,002
2435,53	4	-0,017
2446,305	3	-0,089
2457,075	1	-0,58
2467,856	1	-0,466
2478,625	0	-0,803
2489,401	0	-1,092
2500,17	0	-1,102
2510,945	-1	-1,637
2521,703	-3,5	-2,345
2532,472	-9	-2,825
2543,26	-9	-2,985
2554,029	-12,5	-3,446
2564,798	-12	-3,498
2575,574	-11,5	-3,127
2586,349	-6,5	-2,783
2597,113	-5	-2,669
2607,882	-2,5	-2,143
2618,663	-1	-1,658
2629,439	-0,5	-1,428
2640,202	0	-1,028
2650,989	2	-0,262
2661,765	2,5	-0,119
2672,534	3,5	-0,06
2683,31	3,5	-0,026
2694,085	3,5	-0,033
2704,854	2,5	-0,11
2715,63	3	-0,073
2726,399	3	-0,07
2737,169	3,5	-0,027
2747,944	4	-0,004
2758,713	4	-0,002
2769,495	4	0
2780,276	4	-0,001
2791,045	4	-0,223
2801,815	4	-0,348
2812,596	2	-0,596
2823,36	4	0
2834,135	4	-0,002
2844,91	4	-0,011
2855,68	2,5	-0,126
2866,455	1	-0,572
2877,225	0,5	-0,961
2887,994	0	-1,27
2898,757	-0,5	-1,768
2909,515	-1	-2,073
2920,278	-4	-2,634
2931,06	-10,5	-3,292
2941,835	-10,5	-3,499
2952,604	-10,5	-3,495
2963,38	-10,5	-3,489
2974,149	-10,5	-3,481
2984,918	-9,5	-3,454
2995,7	-6,5	-3,308
3006,469	-5	-3,052
3017,239	-4	-2,85
3028,008	-3,5	-2,748
3038,783	-2,5	-2,47
3049,553	-2	-2,14
3060,316	-1	-1,514
3071,086	-0,5	-1,189
3081,873	0	-0,916
3092,642	3	-0,335
3103,412	4	-0,001
3114,187	4	-0,002
3124,956	4	-0,012
3135,732	3	-0,058
3146,501	1,5	-0,235
3157,265	1,5	-0,408
3168,028	0	-1,007
3178,797	0	-1,598
3189,555	-1,5	-2,243
3200,324	-3	-2,621
3211,111	-8	-2,957
3221,881	-10	-3,414
3231,588	4	-0,001