Folder: Data-filter--cyclical-tests-BEPE-project-/ensaios_Ciclicos/_60perc/_1gap/entrada

Note: README.md
# Data filter (cyclical tests BEPE project)
python aplication to treat data get by fatigue testing machine

File: _3.txt
Time (s)	Load (N)	Displacement (mm)
0	0	-0,041
10,685	1	-0,002
21,304	1,5	-0,006
31,911	1	-0,019
42,543	1,5	-0,023
53,174	1,5	-0,047
63,806	0,5	-0,116
74,425	0	-0,198
85,092	0	-0,246
95,742	-0,5	-0,62
106,391	-1,5	-0,96
117,022	-4	-1,683
127,654	-5,5	-2,118
138,303	-11	-2,808
148,941	-12,5	-3,471
159,566	-12,5	-3,499
170,215	-12,5	-3,497
180,859	-12,5	-3,497
191,49	-12	-3,489
202,128	-12	-3,45
212,795	-11,5	-3,444
223,444	-9,5	-3,283
234,094	-7,5	-2,92
244,749	-5	-2,452
255,404	-4,5	-2,256
266,024	-3	-1,852
276,673	-3	-1,805
287,341	-3	-1,828
298,02	-3,5	-2,025
308,657	-3	-1,842
319,301	-3	-1,696
329,938	-2	-1,461
340,57	-1,5	-1,233
351,207	-1	-1,168
361,85	-0,5	-0,963
372,5	0	-0,627
383,155	1,5	-0,322
393,817	1,5	-0,319
404,478	2	-0,196
415,103	2	-0,001
425,777	2	-0,002
436,444	2	-0,003
447,118	2	-0,007
457,773	2	-0,01
468,404	2	-0,016
479,054	1,5	-0,026
489,709	1,5	-0,059
500,358	1	-0,162
511,008	0	-0,485
521,645	0	-0,594
532,301	0	-0,712
542,938	-0,5	-0,969
553,593	-1,5	-1,432
564,237	-1,5	-1,409
574,886	-2	-1,621
585,53	-3,5	-2,018
596,179	-4,5	-2,284
606,822	-6	-2,574
617,478	-7,5	-2,788
628,145	-8,5	-2,879
638,807	-9,5	-3,036
649,444	-10	-3,237
660,093	-10,5	-3,5
670,749	-10,5	-3,498
681,38	-10,5	-3,492
692,042	-10	-3,468
702,685	-8,5	-3,39
713,346	-7	-3,24
723,99	-5,5	-2,971
734,627	-4,5	-2,661
745,27	-4	-2,489
755,908	-3,5	-2,296
766,551	-3	-2,107
777,183	-1,5	-1,639
787,814	-1	-1,093
798,451	1	-0,528
809,101	2	-0,015
819,744	2	-0,001
830,394	2	-0,008
841,031	2	-0,018
851,698	2	-0,022
862,342	1,5	-0,063
872,985	1	-0,192
883,617	0,5	-0,231
894,266	0,5	-0,344
904,903	0	-0,516
915,553	0	-0,452
926,172	0	-0,714
936,816	0	-0,886
947,465	0	-0,896
958,126	0	-0,869
968,776	-0,5	-1,144
979,419	-1	-1,312
990,056	-1	-1,468
1000,712	-1,5	-1,516
1011,343	-1,5	-1,628
1021,987	-3	-1,981
1032,642	-4	-2,234
1043,297	-5,5	-2,591
1053,953	-7	-2,768
1064,608	-8,5	-3,062
1075,258	-10	-3,475
1085,907	-9,5	-3,5
1096,55	-9,5	-3,498
1107,2	-10	-3,494
1117,837	-9,5	-3,49
1128,469	-10	-3,494
1139,124	-9,5	-3,498
1149,773	-10	-3,499
1160,411	-9,5	-3,467
1171,066	-9,5	-3,32
1181,71	-9,5	-3,295
1192,365	-8,5	-3,122
1203,014	-7,5	-2,87
1213,664	-6,5	-2,679
1224,319	-5,5	-2,6
1234,98	-6	-2,519
1245,636	-4,5	-2,244
1256,285	-4	-2,265
1266,947	-2,5	-1,89
1277,578	-1	-1,486
1288,227	0	-0,976
1298,871	0	-0,782
1309,526	0,5	-0,411
1320,17	0	-0,287
1330,819	1,5	-0,12
1341,456	1,5	-0,058
1352,1	2	-0,022
1362,749	2	-0,01
1373,399	2	-0,004
1384,042	2	-0,002
1394,691	2	-0,002
1405,341	1,5	-0,391
1415,984	1,5	-0,5
1426,628	-0,5	-0,89
1437,271	-0,5	-1,036
1447,92	-1,5	-1,59
1458,564	-1,5	-1,566
1469,225	-1,5	-1,716
1479,868	-2	-1,746
1490,512	-1,5	-1,62
1501,173	-1	-1,414
1511,805	-1	-1,17
1522,442	-0,5	-0,929
1533,079	-0,5	-0,864
1543,717	0	-0,709
1554,366	0	-0,683
1565,01	0,5	-0,562
1575,653	0,5	-0,618
1586,302	0	-0,715
1596,934	0,5	-0,603
1607,571	1	-0,55
1618,215	1,5	-0,407
1628,852	2	-0,341
1639,495	1,5	-0,397
1650,133	2	-0,185
1660,782	2	-0,077
1671,414	1,5	-0,35
1682,081	0,5	-0,601
1692,724	-0,5	-0,912
1703,374	-0,5	-1,188
1714,005	-1	-1,608
1724,643	-1,5	-1,975
1735,304	-2	-2,105
1745,941	-2,5	-2,166
1756,573	-1,5	-1,876
1767,21	-3	-2,427
1777,86	-5	-3,071
1788,497	-4,5	-2,952
1799,146	-4,5	-2,963
1809,802	-5	-2,967
1820,427	-6,5	-3,33
1831,076	-8,5	-3,453
1841,732	-9	-3,494
1852,381	-9	-3,494
1863,013	-9	-3,498
1873,644	-9	-3,483
1884,287	-6	-2,714
1894,931	-3	-2,126
1905,58	-1	-1,466
1916,236	0	-0,815
1926,885	0,5	-0,195
1937,528	1,5	-0,052
1948,166	2	-0,016
1958,785	2	-0,01
1969,423	2	-0,002
1980,078	2	-0,001
1990,715	2	-0,002
2001,353	2	-0,004
2012,014	2	-0,004
2022,652	2	-0,007
2033,289	2	-0,001
2043,938	2	0
2054,576	2	-0,21
2065,213	1	-0,516
2075,868	-0,5	-1,067
2086,518	-1	-1,604
2097,161	-0,5	-1,336
2107,811	-0,5	-1,225
2118,46	0	-0,821
2129,097	1	-0,58
2139,735	2	-0,077
2150,366	2	-0,002
2161,004	2	-0,007
2171,647	2	-0,014
2182,284	2	-0,025
2192,916	2	-0,03
2203,565	1,5	-0,052
2214,203	1	-0,262
2224,846	0	-0,442
2235,471	0	-0,88
2246,121	0	-0,827
2256,764	0	-0,691
2267,413	1	-0,259
2278,051	1	-0,164
2288,682	0,5	-0,252
2299,314	1	-0,121
2309,939	1,5	-0,064
2320,57	2	-0,017
2331,19	1,5	-0,004
2341,815	1,5	-0,002
2352,447	2	0
2363,084	2	-0,244
2373,721	0	-0,721
2384,347	-0,5	-1,094
2394,972	-1	-1,399
2405,604	-1,5	-1,741
2416,241	-1,5	-1,867
2426,884	-2	-2,188
2437,528	-2,5	-2,366
2448,159	-4	-2,872
2458,797	-5,5	-3,297
2469,422	-7,5	-3,448
2480,059	-8	-3,486
2490,685	-8	-3,488
2501,322	-8	-3,498
2511,96	-8	-3,499
2522,591	-8	-3,396
2533,222	-6	-2,924
2543,86	-4,5	-2,669
2554,491	-2,5	-2,259
2565,123	-1,5	-1,903
2575,754	-0,5	-1,328
2586,397	0	-0,864
2597,017	0,5	-0,428
2607,642	1,5	-0,087
2618,267	2	-0,026
2628,893	2	-0,009
2639,53	2	-0,002
2650,162	2	-0,131
2660,799	0	-0,746
2671,436	-0,5	-1,313
2682,062	-1	-1,672
2692,705	-2	-2,132
2703,343	-2	-2,211
2713,968	-2,5	-2,282
2724,605	-3	-2,637
2735,237	-3,5	-2,818
2745,874	-4	-2,998
2756,506	-3,5	-2,973
2767,155	-5,5	-3,386
2777,792	-7,5	-3,48
2788,424	-7,5	-3,495
2799,055	-7,5	-3,499
2809,693	-7,5	-3,295
2820,342	-5	-2,816
2830,985	-2,5	-2,281
2841,617	-1,5	-2,062
2852,248	-0,5	-1,625
2862,897	0	-1,228
2873,535	0	-0,888
2884,172	0,5	-0,256
2894,81	1,5	-0,054
2905,453	2	-0,012
2916,084	2	-0,002
2926,716	2	-0,144
2937,353	0	-0,875
2947,979	-0,5	-1,287
2958,604	-1	-1,827
2969,235	-2	-2,28
2979,861	-2,5	-2,782
2990,486	-4	-3,109
3001,118	-4,5	-3,36
3011,755	-5	-3,441
3022,398	-5,5	-3,488
3033,024	-5,5	-3,495
3043,649	-5	-3,498
3054,281	-5	-3,5
3064,906	-5	-3,499
3075,537	-5	-3,496
3086,187	-4,5	-3,071
3096,83	-2,5	-2,633
3107,468	-0,5	-1,915
3118,123	0	-0,828
3128,766	1	-0,124
3139,416	2	-0,024
3150,047	1,5	-0,019
3160,684	2	-0,012
3171,322	2	-0,01
3181,953	2	-0,007
3188,445	2	-0,001

File: _4.txt
Time (s)	Load (N)	Displacement (mm)
0	0	-0,027
10,647	0,5	-0,001
21,254	1	-0,003
31,862	0,5	-0,011
42,469	1	-0,024
53,082	0,5	-0,04
63,702	0	-0,096
74,315	-0,5	-0,415
84,941	-1,5	-0,668
95,554	-3	-1,081
106,185	-2	-0,952
116,805	-4	-1,404
127,436	-5	-1,698
138,056	-6,5	-1,938
148,693	-5,5	-1,827
159,33	-5,5	-1,79
169,98	-4	-1,484
180,617	-3,5	-1,546
191,23	-4,5	-1,608
201,844	-5	-1,662
212,463	-3,5	-1,588
223,089	-3,5	-1,503
233,708	-3	-1,341
244,333	-1	-0,914
254,959	-1	-0,852
265,572	-0,5	-0,814
276,228	0	-0,518
286,859	0	-0,265
297,496	1	-0,078
308,158	1,5	-0,015
318,783	1,5	-0,014
329,432	1,5	-0,013
340,082	1,5	-0,009
350,707	1,5	-0,008
361,327	1,5	-0,012
371,958	1,5	-0,01
382,589	1,5	-0,005
393,227	1,5	-0,005
403,864	1,5	-0,004
414,502	1,5	-0,002
425,127	1,5	-0,001
435,764	1,5	-0,001
446,402	1,5	-0,001
457,033	1,5	-0,018
467,671	1,5	-0,194
478,314	1,5	-0,232
488,957	1,5	-0,388
499,613	0	-0,686
510,244	-0,5	-0,794
520,888	0	-0,754
531,549	-0,5	-0,895
542,18	-1,5	-1,075
552,842	-2	-1,285
563,485	-2,5	-1,611
574,135	-3,5	-1,825
584,778	-3,5	-2,002
595,409	-3,5	-2,06
606,047	-4,5	-2,31
616,702	-5	-2,505
627,34	-5,5	-2,636
638,001	-7	-2,904
648,668	-9,5	-3,291
659,324	-10	-3,398
669,973	-10	-3,404
680,604	-10	-3,375
691,266	-11	-3,454
701,903	-11	-3,466
712,565	-11	-3,47
723,214	-11,5	-3,472
733,869	-11,5	-3,479
744,525	-11	-3,474
755,174	-11	-3,482
765,818	-11,5	-3,488
776,461	-11,5	-3,488
787,11	-11	-3,481
797,748	-11,5	-3,481
808,385	-11	-3,48
819,041	-11	-3,489
829,69	-11	-3,493
840,321	-11	-3,496
850,965	-11,5	-3,493
861,62	-11	-3,495
872,257	-11	-3,492
882,913	-11	-3,489
893,55	-11	-3,483
904,206	-11	-3,481
914,843	-11	-3,473
925,48	-10,5	-3,458
936,13	-10,5	-3,431
946,761	-9,5	-3,382
957,411	-10	-3,376
968,042	-8	-3,238
978,679	-8,5	-3,306
989,329	-9	-3,356
999,984	-10	-3,462
1010,622	-10	-3,457
1021,247	-10	-3,415
1031,89	-9	-3,374
1042,546	-10	-3,422
1053,171	-9	-3,398
1063,815	-9,5	-3,402
1074,476	-9,5	-3,411
1085,119	-10	-3,436
1095,763	-10,5	-3,457
1106,4	-10,5	-3,471
1117,032	-10,5	-3,488
1127,675	-10,5	-3,498
1138,318	-10,5	-3,499
1148,956	-11	-3,499
1159,605	-10,5	-3,323
1170,242	-9,5	-2,983
1180,868	-9	-2,851
1191,511	-6,5	-2,535
1202,161	-5,5	-2,385
1212,81	-4,5	-2,189
1223,453	-4	-2,097
1234,103	-3	-1,847
1244,74	-3	-1,821
1255,378	-2,5	-1,676
1266,009	-3	-1,854
1276,652	-3	-1,814
1287,284	-2,5	-1,664
1297,921	-1,5	-1,304
1308,565	-1	-1,143
1319,202	-1	-1,027
1329,833	-0,5	-0,989
1340,489	-0,5	-0,916
1351,138	-1	-1,04
1361,788	-1	-1,229
1372,437	-1	-1,223
1383,086	-1,5	-1,366
1393,73	-1,5	-1,443
1404,391	-2,5	-1,559
1415,052	-2,5	-1,583
1425,69	-2	-1,606
1436,321	-2,5	-1,791
1446,983	-2	-1,64
1457,638	-2,5	-1,658
1468,293	-2	-1,458
1478,943	-1,5	-1,383
1489,592	-1,5	-1,328
1500,242	-1	-1,1
1510,873	-1	-0,994
1521,51	-1	-0,958
1532,154	-0,5	-0,71
1542,785	0	-0,539
1553,429	0	-0,299
1564,084	0	-0,275
1574,733	0	-0,269
1585,383	0	-0,324
1596,026	0	-0,291
1606,676	0	-0,312
1617,313	0	-0,372
1627,95	0	-0,264
1638,594	0	-0,225
1649,243	0	-0,233
1659,874	0	-0,217
1670,524	0,5	-0,172
1681,167	1	-0,071
1691,805	1,5	-0,037
1702,46	1,5	-0,012
1713,097	1,5	-0,008
1723,747	1,5	-0,004
1734,378	1,5	-0,002
1745,01	1,5	-0,001
1755,647	1,5	-0,001
1766,284	1,5	-0,001
1776,922	1,5	-0,001
1787,565	1,5	0
1798,203	1,5	0
1808,852	1,5	-0,173
1819,489	1	-0,363
1830,133	0	-0,524
1840,782	0	-0,716
1851,432	-1	-0,907
1862,081	-1	-0,961
1872,73	-1,5	-1,1
1883,368	-1,5	-1,184
1894,017	-1,5	-1,27
1904,642	-1,5	-1,181
1915,28	-1,5	-1,196
1925,917	-1,5	-1,259
1936,555	-1,5	-1,396
1947,204	-2,5	-1,806
1957,847	-3,5	-2,265
1968,473	-7,5	-3,274
1979,116	-8	-3,383
1989,754	-9,5	-3,467
2000,385	-10	-3,48
2011,022	-10	-3,483
2021,678	-10	-3,488
2032,309	-10	-3,491
2042,959	-10	-3,493
2053,602	-10	-3,493
2064,245	-10	-3,497
2074,889	-10	-3,498
2085,52	-10	-3,498
2096,164	-10	-3,499
2106,795	-10	-3,499
2117,444	-10	-3,499
2128,07	-10	-3,499
2138,725	-10	-3,499
2149,368	-10	-3,499
2160,006	-10	-3,5
2170,649	-10	-3,499
2181,299	-10	-3,499
2191,93	-10	-3,499
2202,567	-10	-3,499
2213,223	-10	-3,5
2223,86	-10	-3,498
2234,51	-9	-3,192
2245,153	-8,5	-2,992
2255,79	-7	-2,823
2266,434	-7,5	-2,852
2277,083	-7	-2,75
2287,739	-6	-2,614
2298,37	-6	-2,667
2309,013	-7	-2,786
2319,651	-5,5	-2,628
2330,288	-5,5	-2,624
2340,932	-5,5	-2,585
2351,557	-6	-2,715
2362,201	-6,5	-2,84
2372,838	-8	-2,974
2383,475	-8,5	-3,089
2394,107	-8	-3,06
2404,732	-8,5	-3,09
2415,381	-7,5	-2,967
2426,025	-6	-2,804
2436,65	-7,5	-2,94
2447,275	-8	-3,055
2457,913	-7,5	-3,034
2468,55	-7,5	-2,967
2479,188	-8,5	-3,106
2489,819	-8,5	-3,383
2500,462	-9	-3,47
2511,088	-8,5	-3,492
2521,725	-8,5	-3,432
2532,357	-8,5	-3,461
2542,988	-8	-3,214
2553,643	-6	-2,772
2564,299	-3,5	-2,332
2574,942	-3	-2,154
2585,586	-2	-1,827
2596,223	-1,5	-1,526
2606,854	-0,5	-1,223
2617,486	0	-0,893
2628,129	0	-0,475
2638,785	1	-0,126
2649,428	1,5	-0,028
2660,065	1,5	-0,019
2670,685	1,5	-0,011
2681,316	1,5	-0,006
2691,953	1,5	-0,006
2702,585	1,5	-0,008
2713,222	1,5	-0,005
2723,854	1,5	-0,005
2734,485	1,5	-0,002
2745,116	1,5	-0,001
2755,766	1,5	0
2766,391	1,5	-0,16
2777,035	1	-0,323
2787,678	1,5	-0,148
2798,309	1	-0,368
2808,947	1	-0,399
2819,614	0	-0,629
2830,24	1	-0,514
2840,871	0	-0,584
2851,514	0,5	-0,501
2862,164	1	-0,501
2872,819	0	-0,824
2883,457	-0,5	-0,86
2894,1	-0,5	-0,947
2904,755	-0,5	-1,036
2915,411	-1	-1,221
2926,054	-1	-1,361
2936,698	-1	-1,401
2947,329	-1,5	-1,492
2957,96	-1	-1,546
2968,604	-1	-1,458
2979,235	-1	-1,666
2989,872	-1	-1,745
3000,51	-1,5	-1,812
3011,153	-1,5	-2,13
3021,797	-2	-2,285
3032,434	-2	-2,22
3043,077	-2	-2,376
3053,709	-2	-2,281
3064,352	-2	-2,385
3074,996	-2,5	-2,494
3085,645	-2,5	-2,653
3096,276	-3	-2,75
3106,926	-3,5	-3,127
3117,557	-3,5	-3,08
3128,189	-3,5	-3,116
3138,826	-3,5	-3,17
3149,463	-4	-3,206
3160,107	-3,5	-3,228
3170,744	-4	-3,252
3181,388	-4,5	-3,322
3187,069	1,5	0