Folder: Data-filter--cyclical-tests-BEPE-project-/Cycling_tests/_60perc/_4gap/entrada

Note: README.md
# Data filter (cyclical tests BEPE project)
python aplication to treat data get by fatigue testing machine

File: _2.txt
Time (s)	Load (N)	Displacement (mm)
0	0	-0,025
10,817	0,5	-0,143
21,508	0,5	-0,001
32,205	1	-0,004
42,903	1	-0,013
53,606	0,5	-0,038
64,304	0	-0,117
75,037	0	-0,338
85,74	-1	-0,679
96,45	-2,5	-1,143
107,171	-3,5	-1,364
117,892	-5	-1,752
128,608	-6	-1,959
139,317	-10	-2,445
186,181	-12	-3,419
196,914	-10,5	-3,331
207,641	-9,5	-3,126
218,369	-9,5	-3,14
229,114	-8,5	-3,062
239,841	-7,5	-2,798
250,575	-6,5	-2,677
261,29	-6	-2,518
272,03	-5	-2,298
282,781	-4,5	-2,16
293,556	-4,5	-2,158
304,284	-3	-1,815
315,023	-3	-1,807
325,757	-3	-1,67
336,484	-2	-1,352
347,217	-1,5	-1,108
357,939	-1	-0,869
368,66	0	-0,542
379,393	1,5	-0,274
390,139	1,5	-0,011
400,866	1,5	0
411,618	1,5	-0,002
422,345	1,5	-0,003
433,084	1,5	-0,008
443,836	1,5	-0,014
454,581	1,5	-0,02
465,327	1,5	-0,044
476,09	1	-0,091
486,829	0,5	-0,164
497,581	0	-0,439
508,308	-0,5	-0,772
519,065	-1,5	-1,071
529,811	-2	-1,357
540,55	-3	-1,666
551,29	-5	-2,094
562,035	-6	-2,298
572,768	-8,5	-2,709
583,52	-9	-2,836
594,241	-10,5	-3,087
604,987	-11	-3,247
615,72	-11	-3,499
626,477	-11	-3,499
637,217	-10,5	-3,498
647,944	-10,5	-3,498
658,684	-10,5	-3,496
669,423	-11	-3,493
680,174	-10,5	-3,481
690,914	-10	-3,453
701,641	-10	-3,424
712,368	-9	-3,35
723,108	-8	-3,188
733,859	-6	-2,954
744,581	-4,5	-2,555
755,326	-3,5	-2,184
766,047	-3	-1,837
776,775	-2	-1,59
787,502	-1,5	-1,14
798,254	-0,5	-0,794
809,005	0,5	-0,438
819,744	1,5	-0,164
830,484	1,5	-0,001
841,211	1,5	-0,003
851,938	1,5	-0,006
862,684	1,5	-0,013
873,423	1,5	-0,074
884,157	0	-0,331
894,89	-0,5	-0,89
905,617	-2,5	-1,638
916,333	-4	-2,056
927,066	-5,5	-2,36
937,806	-5,5	-2,434
948,545	-7,5	-2,75
959,278	-10	-3,177
970,018	-10,5	-3,5
980,739	-10,5	-3,499
991,473	-10,5	-3,486
1002,194	-9	-3,362
1012,927	-6	-2,947
1023,661	-4	-2,469
1034,376	-2,5	-1,864
1045,11	-1,5	-1,481
1055,831	0	-0,8
1066,558	1,5	-0,006
1077,292	1,5	-0,002
1088,013	1,5	-0,011
1098,734	1	-0,111
1109,45	-0,5	-1,024
1120,171	-4	-2,094
1130,911	-7	-2,612
1141,644	-10	-3,5
1152,359	-10	-3,497
1163,087	-9,5	-3,454
1173,826	-5,5	-2,805
1184,56	-3	-2,029
1195,293	-1,5	-1,411
1206,02	1	-0,366
1216,736	1,5	-0,001
1227,451	1,5	-0,008
1238,179	1	-0,072
1248,888	0	-0,602
1259,609	-1,5	-1,442
1270,343	-3	-1,952
1281,082	-5,5	-2,47
1291,815	-9	-3,108
1302,537	-10	-3,499
1313,264	-10	-3,494
1323,992	-9,5	-3,448
1334,719	-6	-3,02
1345,446	-4	-2,426
1356,162	-2	-1,836
1366,901	-1	-1,346
1377,61	0	-0,764
1388,344	0	-0,589
1399,065	1,5	-0,003
1409,787	1,5	-0,002
1420,508	1,5	-0,005
1431,229	1,5	-0,025
1441,945	0,5	-0,217
1452,666	-0,5	-1,167
1463,412	-3	-1,889
1474,139	-5,5	-2,484
1484,872	-7,5	-2,816
1495,594	-10	-3,499
1506,303	-10	-3,49
1517,03	-8	-3,338
1527,752	-5	-2,856
1538,461	-2,5	-2,103
1549,189	-1,5	-1,526
1559,91	-0,5	-0,982
1570,631	0	-0,795
1581,353	1,5	-0,172
1592,098	1,5	-0,001
1602,808	1,5	-0,003
1613,523	1,5	-0,015
1624,238	1	-0,083
1634,96	0	-0,41
1645,675	0	-0,93
1656,397	-3,5	-1,994
1667,118	-10	-3,242
1677,839	-10	-3,497
1688,555	-8,5	-3,402
1699,276	-4,5	-2,764
1709,991	-2,5	-1,941
1720,713	-0,5	-0,906
1731,416	1,5	-0,266
1742,15	1,5	-0,001
1752,883	1,5	-0,005
1763,604	1,5	-0,012
1774,308	1,5	-0,065
1785,035	0	-0,333
1795,751	-0,5	-0,928
1806,478	-0,5	-1,144
1817,193	-2,5	-1,774
1827,903	-4,5	-2,415
1838,618	-8	-2,952
1849,316	-10	-3,499
1860,037	-10	-3,496
1870,758	-9,5	-3,481
1881,486	-8,5	-3,428
1892,213	-6	-3,061
1902,928	-3	-2,28
1913,662	-1,5	-1,471
1924,395	0	-0,541
1935,123	1,5	-0,001
1945,856	1,5	-0,013
1956,565	0	-0,256
1967,287	0	-0,769
1978,002	-1,5	-1,364
1988,724	-3	-2,013
1999,439	-6,5	-2,762
2010,154	-9,5	-3,389
2020,876	-9,5	-3,498
2031,603	-9,5	-3,494
2042,318	-8,5	-3,45
2053,046	-5,5	-3,108
2063,755	-3	-2,324
2074,489	-1	-1,58
2085,204	0	-0,741
2095,919	1,5	-0,206
2106,635	1,5	-0,002
2117,362	1,5	-0,009
2128,066	1	-0,082
2138,793	0	-0,361
2149,52	-0,5	-1,008
2160,23	-1,5	-1,723
2170,963	-4	-2,275
2181,69	-7	-2,81
2192,412	-9	-3,458
2203,133	-9	-3,498
2213,861	-9	-3,496
2224,582	-9	-3,486
2235,303	-8,5	-3,462
2246,031	-7	-3,326
2256,752	-4,5	-2,916
2267,462	-2,5	-2,244
2278,189	-1,5	-1,81
2288,91	-1	-1,442
2299,626	-0,5	-0,906
2310,335	1	-0,488
2321,063	1,5	0
2331,784	2	-0,002
2342,517	1,5	-0,005
2353,239	1,5	-0,018
2363,966	1,5	-0,064
2374,694	0,5	-0,224
2385,415	0	-0,844
2396,142	-0,5	-1,427
2406,87	-1,5	-1,748
2417,579	-4,5	-2,437
2428,3	-7,5	-3,141
2439,01	-8,5	-3,498
2449,737	-8,5	-3,475
2460,453	-7	-3,403
2471,18	-5	-3,031
2481,913	-2,5	-2,452
2492,635	-1,5	-1,935
2503,356	-1	-1,536
2514,09	-0,5	-1,105
2524,799	0	-0,645
2535,52	1,5	-0,054
2546,236	1,5	-0,002
2556,957	1,5	-0,005
2567,678	1,5	-0,022
2578,394	1	-0,114
2589,115	0	-0,62
2599,837	-0,5	-1,158
2610,558	-1,5	-1,691
2621,285	-4	-2,279
2632,007	-5	-2,684
2642,722	-7	-2,996
2653,444	-8	-3,497
2664,159	-8	-3,499
2674,886	-8	-3,496
2685,608	-7,5	-3,484
2696,347	-7	-3,413
2707,068	-4,5	-2,99
2717,778	-2	-2,355
2728,499	-1	-1,699
2739,221	0	-0,975
2749,936	1,5	-0,427
2760,645	1,5	-0,152
2771,361	1,5	-0,112
2782,076	1,5	0
2792,798	1,5	-0,001
2803,525	1,5	-0,002
2814,246	2	-0,012
2824,962	1,5	-0,066
2835,677	0,5	-0,318
2846,399	0	-0,915
2857,12	-0,5	-1,266
2867,835	-1	-1,793
2878,545	-2,5	-2,21
2889,26	-4,5	-2,666
2899,969	-6,5	-3,159
2910,679	-7	-3,201
2921,4	-7,5	-3,384
2932,116	-7	-3,499
2942,837	-7	-3,497
2953,558	-6,5	-3,492
2964,274	-6,5	-3,47
2975,001	-6	-3,457
2985,729	-6	-3,449
2996,438	-5,5	-3,438
3007,171	-4,5	-3,301
3017,899	-3	-2,984
3028,62	-2	-2,35
3039,341	-1,5	-2,062
3050,057	-0,5	-1,621
3060,778	-0,5	-1,317
3071,482	0	-0,79
3082,197	1,5	-0,224
3092,912	1,5	0
3103,64	1,5	-0,001
3114,355	1,5	-0,005
3125,065	1,5	-0,014
3135,762	1	-0,067
3146,483	0,5	-0,275
3157,205	0	-0,54
3167,92	0	-1,139
3178,642	-1	-1,796
3189,369	-1,5	-2,015
3200,09	-3,5	-2,829
3210,812	-5	-3,195
3221,515	-5,5	-3,498
3232,224	-5,5	-3,489
3242,946	-4,5	-3,415
3246,534	1,5	0

File: _3.txt
Time (s)	Load (N)	Displacement (mm)
72,241	-11,5	-2,752
76,849	-3	-1,089
81,444	1	-0,043
86,034	1	-0,018
90,625	-3	-1,438
95,213	-9	-2,905
99,821	-14	-3,496
104,423	-11	-2,751
109,031	-3	-1,21
113,614	0,5	-0,069
118,204	1	0
122,807	-3	-1,286
127,408	-8	-2,791
132,019	-14	-3,49
136,617	-14	-3,295
141,237	-6	-1,919
254,396	0	-0,55
258,986	-3,5	-2,012
263,606	-11	-3,383
268,22	-13,5	-3,498
272,827	-9,5	-2,489
277,465	-1	-0,89
282,073	1,5	-0,02
286,693	1	-0,43
291,312	-4,5	-2,106
295,92	-11	-3,382
300,534	-13	-3,499
305,154	-8	-2,475
309,761	-1	-0,839
314,375	1,5	-0,01
319,001	0	-0,636
323,615	-4,5	-2,143
328,222	-11,5	-3,433
332,83	-13	-3,499
337,45	-6	-2,175
342,057	0	-0,608
346,665	1,5	-0,004
351,279	0	-0,698
355,905	-5,5	-2,362
360,506	-12	-3,465
437,578	-3	-1,766
442,192	-9,5	-3,295
446,793	-12,5	-3,498
451,401	-8,5	-2,644
456,021	-1	-1,016
460,641	1,5	-0,021
465,266	0,5	-0,482
469,88	-4	-2,071
474,482	-11	-3,387
479,102	-12,5	-3,498
483,703	-8	-2,59
488,307	-1,5	-1,154
492,925	1,5	-0,024
497,533	1	-0,383
502,14	-3	-1,902
506,748	-10	-3,343
511,368	-12	-3,498
515,981	-6	-2,337
520,595	-0,5	-0,777
525,215	1,5	-0,01
529,829	0	-0,621
534,442	-3,5	-2,122
539,056	-11	-3,426
543,67	-12	-3,499
548,284	-6,5	-2,405
552,897	-0,5	-0,936
557,499	1,5	-0,018
562,125	1	-0,415
566,733	-3,5	-1,93
571,334	-10	-3,354
575,948	-12	-3,498
580,562	-7,5	-2,498
585,175	-1	-1,007
589,789	1,5	-0,022
594,403	1,5	-0,407
599,005	-2,5	-1,716
603,606	-8	-3,19
608,214	-12	-3,497
612,828	-8	-2,689
762,207	1,5	0
766,815	-1,5	-1,459
771,423	-6	-2,936
776,031	-11,5	-3,493
780,638	-10,5	-3,06
785,246	-3	-1,554
789,866	1	-0,11
794,474	1,5	-0,001
799,075	-2	-1,441
803,689	-7	-3,001
808,291	-11,5	-3,494
812,899	-9	-2,879
817,5	-1,5	-1,358
822,108	1	-0,085
826,716	1,5	0
831,335	-2	-1,455
835,943	-6	-2,916
840,551	-11,5	-3,491
845,159	-10,5	-3,126
849,766	-2,5	-1,557
854,38	1	-0,085
858,994	1,5	-0,001
863,602	-1,5	-1,324
868,209	-6	-2,843
872,817	-11,5	-3,493
877,413	-11,5	-3,168
882,015	-3	-1,678
886,622	0	-0,255
891,236	1,5	-0,002
895,838	-1	-0,936
900,439	-3,5	-2,261
905,047	-10	-3,439
909,661	-11,5	-3,499
914,263	-5,5	-2,32
918,876	-0,5	-0,845
923,478	1,5	-0,025
928,08	1,5	-0,041
932,688	-2	-1,528
937,289	-7	-3,034
941,885	-11	-3,492
946,481	-11,5	-3,326
951,089	-3	-1,794
955,69	0	-0,389
960,292	1,5	-0,005
964,894	0	-0,74
969,496	-3,5	-2,182
974,097	-10,5	-3,452
1520,906	1	-0,421
1525,514	-2,5	-1,866
1530,122	-8	-3,336
1534,723	-10,5	-3,499
1539,319	-6	-2,585
1543,921	-0,5	-0,905
1548,516	1,5	-0,017
1553,124	1,5	-0,32
1557,726	-2	-1,789
1562,334	-8,5	-3,353
1566,935	-10,5	-3,499
1571,531	-5	-2,391
1576,145	-0,5	-0,911
1580,741	1,5	-0,015
1585,354	1	-0,344
1589,956	-2,5	-1,94
1594,57	-9,5	-3,405
1599,172	-10,5	-3,499
1603,785	-6	-2,476
1608,387	-0,5	-0,998
1613,001	1,5	-0,015
1617,603	1,5	-0,298
1622,21	-2,5	-1,871
1626,812	-6	-3,19
1631,408	-10,5	-3,497
1636,003	-8,5	-2,901
1640,605	-1,5	-1,401
1645,207	1,5	-0,062
1649,809	1,5	0
1654,404	-1,5	-1,428
1659	-5,5	-2,95
1663,62	-10,5	-3,494
1668,228	-7,5	-2,812
1672,835	-1	-1,229
1677,443	1,5	-0,028
1682,033	1,5	-0,223
1686,635	-2	-1,855
1691,242	-8	-3,341
1695,85	-10	-3,498
1700,452	-5,5	-2,479
1705,053	-0,5	-0,867
1709,649	1,5	-0,018
1714,257	1,5	-0,411
1718,857	-2	-1,923
1723,46	-8,5	-3,361
1728,062	-10,5	-3,499
1732,664	-5	-2,342
1737,266	0	-0,609
1741,855	1,5	-0,008
1746,457	0	-0,652
1751,065	-2,5	-2,103
1755,667	-9,5	-3,443
1760,268	-10	-3,499
1764,87	-4	-2,114
1769,478	0	-0,42
1846,399	0	-0,729
1851,007	1,5	-0,005
1855,603	-0,5	-0,902
1860,199	-3,5	-2,482
1864,8	-10	-3,48
1869,414	-9	-3,117
1874,01	-1,5	-1,556
1878,612	1	-0,089
2063,887	-10	-3,3
2068,489	-2	-1,655
2073,09	1	-0,102
2077,692	1,5	0
2082,294	-1,5	-1,463
2086,896	-6	-3,07
2091,497	-9,5	-3,496
2096,099	-6,5	-2,813
2100,695	-0,5	-1,195
2105,297	1,5	-0,04
2109,898	1,5	-0,064
2114,488	-1	-1,526
2119,09	-6	-3,168
2123,698	-9,5	-3,496
2128,293	-6	-2,693
2132,889	-0,5	-1,069
2282,029	-9,5	-3,494
2286,63	-7	-2,812
2291,232	-0,5	-1,132
2295,834	1,5	-0,021
2300,436	1	-0,44
2305,031	-2	-2,064
2309,633	-8,5	-3,447
2314,235	-9	-3,499
2499,528	0	-0,953
2504,13	-3,5	-2,571
2508,732	-9	-3,484
2513,345	-9	-3,228
2517,941	-2	-1,766
2522,543	0,5	-0,235
2527,151	1,5	-0,002
2676,284	-3	-2,164
2680,874	0	-0,609
2685,475	1,5	-0,004
2690,071	0	-0,892
2694,667	-3	-2,474
2699,269	-9	-3,483
2703,87	-9	-3,208
2708,478	-1,5	-1,619
2785,382	-5	-2,57
2789,978	-0,5	-1,101
2794,585	1,5	-0,033
2799,187	1,5	-0,1
2803,783	-1,5	-1,667
2808,39	-6,5	-3,286
2812,98	-9	-3,498
2817,582	-4,5	-2,442
2822,178	0	-0,812
2826,773	1,5	-0,012
2831,381	0	-0,68
2835,983	-2,5	-2,36
2840,585	-8,5	-3,475
2845,18	-8,5	-3,23
2849,782	-1,5	-1,621
2854,384	1	-0,078
2858,98	1,5	-0,004
2863,587	-1,5	-1,77
2868,183	-6	-3,357
2872,779	-9	-3,499
2877,387	-2,5	-2,084
2881,988	0	-0,351
2886,59	1,5	-0,002
2891,192	-0,5	-1,035
2895,794	-3,5	-2,723
2900,401	-8,5	-3,491
2905,009	-6	-2,767
2909,611	0	-1,028
2914,218	1,5	-0,019
2918,82	1,5	-0,408
2923,422	-1,5	-2,073
2928,012	-7	-3,411
2932,613	-8	-3,499
2937,215	-2,5	-2,076
2941,817	0	-0,455
2946,419	1,5	-0,004
2951,008	-0,5	-0,912
2955,61	-3	-2,509
2960,206	-7,5	-3,471
2964,808	-8	-3,389
2969,409	-2	-1,839
2974,017	0	-0,342
2978,613	1,5	-0,003
2983,22	0	-0,862
2987,822	-2,5	-2,416
2992,412	-7,5	-3,48
2997,02	-7	-3,094
3037,733	-3	-2,304
3042,341	0	-0,678
3046,943	1,5	-0,004
3051,545	0	-1
3056,134	-3	-2,588
3060,73	-7	-3,486
3065,332	-6	-3,052
3069,934	-0,5	-1,275
3110,671	0	-0,532
3115,267	2	-0,003
3119,881	0	-1,012
3124,482	-2,5	-2,691
3129,084	-6	-3,493
3133,692	-3	-2,676
3138,288	0	-1,052
3142,895	1,5	-0,019
3147,497	1	-0,384
3152,099	-1	-1,985
3156,707	-4,5	-3,407
3161,308	-5,5	-3,499
3165,904	-1	-1,988
3170,506	0	-0,355
3175,107	1,5	-0,002
3179,703	0	-1,065
3217,945	1,5	-0,001

File: _4.txt
Time (s)	Load (N)	Displacement (mm)
72,252	-9	-2,251
80,676	-7	-1,892
89,117	-4,5	-1,495
97,553	-3	-1,225
105,977	-1,5	-0,738
114,418	0	-0,201
122,835	1	-0,055
131,253	1	-0,013
139,676	1	-0,001
148,112	1	0
156,559	1	-0,228
165,019	0	-0,632
173,448	-2	-1,144
254,3	-10,5	-2,761
262,759	-7,5	-2,339
271,219	-5	-1,874
279,66	-3	-1,414
288,108	-0,5	-0,69
296,555	-0,5	-0,568
305,015	0	-0,359
313,468	-0,5	-0,704
321,928	-2,5	-1,32
330,393	-4	-1,712
338,853	-5,5	-2,014
347,324	-4,5	-1,785
355,778	-4,5	-1,793
472,993	-2,5	-1,653
481,459	-3,5	-1,934
489,93	-6,5	-2,783
498,396	-10	-3,296
506,855	-9,5	-3,257
515,297	-10,5	-3,358
523,744	-10,5	-3,39
532,216	-11	-3,404
540,663	-9	-3,187
549,123	-10,5	-3,4
557,564	-10	-3,351
566,006	-9	-3,22
574,459	-8	-3,062
582,889	-5,5	-2,573
591,354	-4	-2,222
599,802	-3	-1,745
608,255	-2,5	-1,563
725,297	-10	-3,394
733,744	-9,5	-3,363
742,186	-9,5	-3,378
750,621	-8,5	-3,241
759,069	-6,5	-2,948
767,522	-5	-2,511
775,976	-4	-2,408
784,429	-3	-2,019
792,871	-2,5	-1,884
801,312	-2,5	-1,86
809,754	-2,5	-1,767
818,177	-1,5	-1,328
826,619	-1	-1,076
835,054	-0,5	-0,793
843,484	1	-0,346
851,931	1	-0,412
860,349	1,5	-0,004
868,796	1,5	-0,001
877,244	1,5	-0,004
885,674	1,5	-0,018
894,115	1	-0,095
902,569	0	-0,395
911,004	-0,5	-0,694
919,452	-1	-1,028
927,893	-3	-1,727
936,335	-5,5	-2,357
944,77	-8,5	-2,869
953,206	-11	-3,316
961,659	-11	-3,498
970,113	-10,5	-3,49
1123,182	-4	-1,994
1131,617	-4,5	-2,138
1140,047	-5,5	-2,35
1148,489	-6	-2,405
1156,918	-6	-2,404
1165,348	-7	-2,6
1173,783	-7	-2,536
1182,225	-6	-2,359
1190,654	-8	-2,825
1199,096	-8	-2,79
1207,531	-10	-3,148
1215,961	-10,5	-3,5
1224,39	-10,5	-3,498
1232,82	-10,5	-3,495
1241,261	-10,5	-3,491
1249,697	-10	-3,457
1258,138	-8	-3,323
1266,568	-5	-2,692
1275,003	-3,5	-2,24
1283,433	-2,5	-1,773
1291,856	-1	-1,286
1300,28	0	-0,677
1308,703	1	-0,339
1317,139	1,5	-0,175
1325,58	1,5	-0,001
1334,004	1,5	-0,005
1342,451	1,5	-0,008
1350,887	1,5	-0,02
1359,316	1	-0,064
1367,746	0	-0,236
1376,176	-0,5	-0,685
1384,605	-1	-1,179
1393,035	-1,5	-1,359
1401,482	-3	-1,921
1409,906	-5	-2,3
1418,329	-8	-2,797
1426,771	-10	-3,196
1435,206	-10,5	-3,499
1443,642	-10,5	-3,498
1452,065	-10	-3,487
1460,507	-9	-3,412
1468,936	-6	-2,971
1477,354	-3,5	-2,173
1485,783	-1,5	-1,42
1494,225	0	-0,687
1502,66	1,5	0
1511,102	1,5	-0,002
1519,537	1,5	-0,009
1528,015	1,5	-0,043
1536,45	0	-0,339
1544,892	0	-0,756
1553,321	-1	-1,144
1561,757	-1	-1,34
1570,198	-2,5	-1,667
1578,628	-3	-2,033
1587,069	-6	-2,626
1595,511	-9,5	-3,102
1603,94	-10	-3,499
1612,376	-10	-3,497
1620,818	-10	-3,49
1629,247	-9,5	-3,451
1637,665	-8	-3,322
1646,094	-6	-3,052
1654,524	-5	-2,792
1662,953	-3	-2,267
1671,383	-2,5	-1,875
1679,812	-1,5	-1,413
1688,248	-0,5	-0,972
1696,671	0	-0,656
1705,107	1	-0,478
1713,53	1,5	-0,036
1721,966	1,5	-0,002
1730,407	1,5	-0,009
1738,849	1,5	-0,026
1747,284	1	-0,053
1755,708	0,5	-0,114
1764,137	0	-0,359
1772,573	0	-0,604
1781,002	-0,5	-0,954
1789,45	-1	-1,149
1797,885	-1,5	-1,479
1806,309	-3,5	-1,993
1814,744	-5	-2,323
1823,18	-6	-2,605
1831,61	-9,5	-3,131
1840,039	-9,5	-3,402
1848,475	-10	-3,489
1856,904	-10	-3,498
1865,328	-9,5	-3,498
1873,763	-10	-3,495
1882,187	-9,5	-3,488
1890,616	-9,5	-3,472
1899,034	-8,5	-3,405
1907,469	-6,5	-3,126
1915,905	-4,5	-2,785
1924,328	-3,5	-2,373
1932,758	-2,5	-2,018
1941,187	-2	-1,754
1949,617	-1,5	-1,462
1958,064	-1	-1,31
1966,5	-0,5	-0,968
1974,923	0	-0,604
1983,359	1,5	-0,358
2027,93	1,5	-0,031
2036,36	1,5	-0,002
2044,795	1,5	-0,006
2053,231	1,5	-0,02
2061,666	1,5	-0,064
2070,096	0,5	-0,175
2078,537	0	-0,525
2086,979	0	-0,847
2095,414	-1	-1,215
2103,838	-1,5	-1,477
2112,267	-3	-1,843
2120,697	-4,5	-2,235
2129,126	-6	-2,649
2137,562	-8,5	-2,99
2145,998	-9,5	-3,456
2154,421	-9,5	-3,499
2162,851	-9,5	-3,497
2171,286	-9	-3,494
2179,716	-9	-3,471
2188,145	-7,5	-3,379
2196,581	-5,5	-3,116
2205,01	-4,5	-2,743
2213,422	-2,5	-2,219
2221,851	-2	-1,944
2230,281	-2,5	-2,02
2238,704	-1,5	-1,752
2247,14	-1	-1,32
2255,563	-0,5	-1,042
2263,993	-0,5	-0,947
2272,416	0	-0,62
2280,846	1,5	-0,002
2289,275	1,5	-0,028
2297,705	1	-0,079
2306,134	0,5	-0,117
2314,552	0	-0,612
2322,987	0	-0,698
2331,423	0	-0,816
2339,852	-0,5	-0,84
2348,276	0	-0,795
2356,699	-0,5	-0,894
2365,129	-0,5	-1,084
2373,552	-1	-1,144
2381,994	-1,5	-1,589
2390,43	-1,5	-1,674
2398,865	-3,5	-2,233
2407,295	-3,5	-2,311
2415,73	-5	-2,483
2424,16	-5	-2,599
2432,601	-6,5	-2,862
2441,043	-8	-3,153
2449,478	-8,5	-3,323
2457,902	-8,5	-3,414
2502,467	-8,5	-3,372
2510,909	-8,5	-3,486
2519,332	-8,5	-3,499
2527,762	-8,5	-3,498
2536,197	-8,5	-3,497
2544,633	-8,5	-3,495
2553,062	-8,5	-3,491
2561,486	-8,5	-3,481
2569,921	-8	-3,461
2578,357	-6,5	-3,374
2586,786	-6	-3,303
2595,228	-6	-3,245
2603,657	-5	-3,146
2612,099	-5	-3,111
2620,522	-4,5	-2,911
2628,946	-3,5	-2,633
2637,369	-2	-2,115
2681,929	-1	-1,405
2690,358	-0,5	-1,061
2698,788	0	-0,642
2707,217	1	-0,317
2715,653	1,5	-0,071
2724,076	1,5	-0,001
2732,512	1,5	-0,002
2740,947	1,5	-0,009
2785,495	1,5	-0,007
2793,912	1,5	-0,016
2802,342	1	-0,066
2810,771	0	-0,239
2819,201	0	-0,816
2827,625	-0,5	-1,265
2836,048	-1	-1,604
2844,472	-1	-1,711
2852,901	-2,5	-2,003
2861,331	-3	-2,396
2869,76	-4,5	-2,73
2878,178	-6,5	-3,194
2886,613	-7,5	-3,499
2895,043	-7	-3,493
2903,472	-6,5	-3,474
2911,902	-6	-3,419
2920,331	-4,5	-3,199
2928,761	-3	-2,882
2937,202	-2,5	-2,518
2945,632	-2	-2,201
2954,061	-1	-1,578
2962,497	0	-0,941
2970,944	0	-0,68
2979,38	1,5	0
2987,809	1,5	-0,003
2996,257	1,5	-0,008
3004,692	1,5	-0,019
3013,116	1	-0,136
3021,545	0	-0,711
3029,981	0	-1,148
3038,41	-0,5	-1,716
3046,84	-1,5	-2,109
3055,264	-3,5	-2,775
3063,693	-5	-3,12
3072,129	-5,5	-3,491
3080,564	-5	-3,499
3088,988	-5	-3,496
3097,411	-5	-3,482
3105,847	-4,5	-3,428
3114,276	-4	-3,282
3122,706	-2,5	-2,919
3131,141	-2	-2,477
3139,577	-2	-2,375
3147,994	-1,5	-2,114
3156,418	-1	-1,814
3164,853	-0,5	-1,457
3173,289	-1	-1,424
3181,454	1,5	-0,001

File: _5.txt
Time (s)	Load (N)	Displacement (mm)
0	0	-0,03
10,678	0,5	0
21,196	1	-0,004
31,731	1	-0,018
42,272	0	-0,149
52,808	-1	-0,627
63,355	-4	-1,396
73,903	-6,5	-1,991
84,456	-10,5	-2,561
95,022	-15	-3,5
105,593	-15	-3,496
116,134	-14,5	-3,471
126,718	-13,5	-3,421
137,283	-10,5	-3,106
184,062	-5	-2,081
194,64	-3	-1,434
205,235	-1,5	-1,015
215,8	1,5	-0,052
226,36	1,5	-0,008
236,949	0	-0,211
247,539	-1,5	-1,024
258,134	-5	-1,858
268,717	-10,5	-2,719
279,337	-13,5	-3,259
289,92	-13,5	-3,498
300,492	-13	-3,47
311,081	-10	-3,253
321,676	-6	-2,475
332,266	-3	-1,665
342,855	-1	-0,934
353,445	1,5	0
364,046	1,5	-0,017
374,634	0	-0,201
385,225	-2,5	-1,403
395,796	-8	-2,462
406,398	-13	-3,413
416,975	-13	-3,496
427,558	-11,5	-3,419
438,142	-7	-2,736
448,695	-3,5	-1,985
459,273	-2	-1,333
469,838	-0,5	-0,813
480,439	1	-0,274
491,017	1,5	-0,001
501,6	1,5	-0,005
512,172	1	-0,115
522,749	-1	-0,919
533,332	-3	-1,528
543,904	-5,5	-2,236
554,481	-10	-2,856
565,058	-12,5	-3,499
575,63	-12,5	-3,496
586,189	-12	-3,459
596,755	-7,5	-2,878
607,332	-4,5	-2,18
617,915	-2	-1,187
628,481	1,5	-0,058
639,064	1,5	-0,004
649,636	1	-0,104
660,201	0	-0,716
670,784	-3	-1,485
681,374	-6	-2,238
691,945	-10	-2,888
702,511	-12	-3,499
713,064	-12,5	-3,495
723,629	-11	-3,43
734,201	-6,5	-2,978
744,772	-4	-2,268
755,344	-2,5	-1,634
765,915	-0,5	-0,877
776,474	1,5	-0,058
787,046	1,5	-0,006
797,599	1,5	-0,094
808,171	0	-0,648
818,748	-1,5	-1,251
829,313	-4,5	-2,08
839,873	-11	-3,051
850,438	-12	-3,499
861,004	-11,5	-3,49
871,593	-11	-3,454
882,158	-8	-3,144
892,73	-5	-2,696
903,295	-3,5	-2,069
913,873	-2	-1,422
924,426	-1	-1,028
935,003	0	-0,631
945,569	1,5	-0,261
956,128	1,5	0
966,7	2	-0,002
977,265	1,5	-0,007
987,83	1,5	-0,013
998,408	1,5	-0,02
1008,961	1,5	-0,056
1019,527	0	-0,415
1030,092	-0,5	-0,995
1040,651	-1	-1,238
1051,211	-1,5	-1,448
1061,776	-3	-1,697
1072,342	-3	-1,921
1082,895	-4,5	-2,194
1093,454	-6,5	-2,547
1104,026	-7	-2,68
1114,585	-8,5	-2,908
1125,144	-9,5	-3,001
1135,698	-10,5	-3,25
1146,263	-11	-3,388
1156,811	-11	-3,499
1167,364	-11	-3,499
1177,935	-11	-3,499
1188,501	-11	-3,498
1199,072	-11	-3,498
1209,626	-11	-3,495
1220,173	-11	-3,475
1230,726	-10	-3,447
1241,292	-9,5	-3,38
1251,863	-8	-3,29
1262,471	-8,5	-3,302
1273,024	-6	-3,015
1283,577	-5	-2,7
1294,137	-4	-2,495
1304,696	-3	-2,189
1315,268	-2,5	-1,895
1325,827	-2,5	-1,69
1336,392	-1,5	-1,382
1346,958	-1	-1,192
1357,535	-0,5	-0,971
1368,083	0	-0,577
1378,648	1,5	-0,262
1389,201	1,5	0
1399,761	1,5	-0,004
1410,332	1,5	-0,013
1420,88	1,5	-0,049
1431,433	1	-0,1
1441,992	0,5	-0,179
1452,552	0	-0,341
1463,105	0	-0,524
1473,653	0	-0,735
1484,212	0	-0,696
1494,771	0	-0,67
1505,331	0	-0,606
1515,896	0	-0,685
1526,45	-1	-1,192
1537,009	-1	-1,227
1547,562	-1,5	-1,286
1558,116	-1,5	-1,516
1568,675	-3	-2,003
1579,241	-5,5	-2,481
1589,794	-8,5	-2,93
1600,353	-10,5	-3,194
1610,901	-10,5	-3,5
1621,448	-10,5	-3,497
1632,02	-10,5	-3,494
1642,579	-10,5	-3,464
1653,126	-9	-3,365
1663,692	-5,5	-2,81
1674,263	-3,5	-2,388
1684,811	-3	-2,15
1695,382	-2,5	-2,001
1705,935	-1,5	-1,617
1716,489	-0,5	-1,009
1727,048	1	-0,405
1737,608	1,5	-0,001
1748,167	1,5	-0,016
1758,726	1	-0,093
1769,28	0	-0,516
1779,851	-0,5	-0,907
1790,416	-1,5	-1,453
1800,976	-3	-1,963
1811,535	-6	-2,604
1822,089	-10,5	-3,176
1832,636	-10,5	-3,499
1843,183	-10,5	-3,494
1853,743	-9,5	-3,436
1864,404	-8,5	-3,395
1874,97	-6	-3,051
1885,529	-3,5	-2,462
1896,088	-2	-1,774
1906,648	-1	-1,063
1917,195	1	-0,388
1927,761	1,5	-0,022
1938,344	2	-0,001
1948,903	2	-0,007
1959,457	1	-0,078
1970,016	0	-0,572
1980,576	-0,5	-1,095
1991,135	-2	-1,805
2001,706	-4,5	-2,335
2012,254	-9	-3,015
2022,813	-10	-3,499
2033,367	-10,5	-3,493
2043,926	-9,5	-3,426
2054,491	-5	-2,846
2065,051	-3,5	-2,354
2075,61	-2	-1,861
2086,176	-1,5	-1,336
2096,717	0	-0,69
2107,27	2	-0,022
2117,842	1,5	-0,005
2128,401	1,5	-0,032
2138,967	1	-0,119
2149,526	0	-0,475
2160,097	0	-0,786
2170,645	-1	-1,259
2181,198	-1,5	-1,562
2191,752	-3	-2,058
2202,299	-5,5	-2,541
2212,852	-8,5	-2,966
2223,4	-10,5	-3,462
2233,941	-10,5	-3,499
2244,501	-10,5	-3,497
2255,048	-10	-3,49
2265,595	-10	-3,472
2276,155	-8,5	-3,407
2286,726	-6,5	-3,189
2297,273	-4,5	-2,801
2307,827	-3	-2,392
2318,392	-2	-1,876
2328,946	-1,5	-1,397
2339,499	0	-0,874
2350,082	0	-0,602
2360,63	1,5	-0,281
2371,183	1,5	-0,001
2381,725	2	-0,008
2392,278	1,5	-0,058
2402,825	0,5	-0,403
2413,379	0	-0,78
2423,944	-1	-1,249
2434,51	-2,5	-1,844
2445,063	-5,5	-2,654
2455,604	-9,5	-3,471
2466,176	-9,5	-3,498
2476,729	-9	-3,478
2487,301	-6,5	-3,308
2497,848	-3	-2,49
2508,401	-1	-1,574
2518,973	0	-0,812
2529,532	1,5	-0,122
2540,08	2	-0,003
2550,633	1,5	-0,026
2561,192	1	-0,185
2571,728	0	-0,613
2582,287	-1	-1,587
2592,847	-4	-2,452
2603,406	-9	-3,268
2613,953	-9,5	-3,499
2624,519	-9	-3,487
2635,072	-6	-3,204
2645,614	-3	-2,457
2656,179	-1,5	-1,634
2666,75	-0,5	-1,015
2677,304	1,5	-0,039
2687,851	2	-0,004
2698,417	1,5	-0,022
2708,976	1	-0,08
2719,529	0	-0,692
2730,089	-0,5	-1,302
2740,636	-2,5	-1,924
2751,19	-5,5	-2,568
2761,737	-8,5	-3,061
2772,302	-9,5	-3,5
2782,862	-9,5	-3,498
2793,409	-9	-3,493
2803,963	-9	-3,473
2814,522	-7,5	-3,389
2825,069	-5,5	-3,108
2835,623	-3	-2,56
2846,17	-2	-2,061
2856,724	-1,5	-1,645
2867,283	-1	-1,201
2877,842	0,5	-0,671
2888,396	1,5	-0,17
2898,943	1,5	-0,002
2909,491	1,5	-0,012
2920,044	1,5	-0,07
2930,609	0,5	-0,325
2941,157	-0,5	-1,187
2951,716	-1,5	-1,749
2962,263	-4,5	-2,63
2972,835	-8	-3,063
2983,388	-9	-3,499
2993,936	-9	-3,492
3004,485	-7,5	-3,42
3015,03	-4,5	-2,971
3025,566	-2,5	-2,26
3036,131	-1,5	-1,647
3046,691	-0,5	-1,026
3057,244	1	-0,381
3067,833	2	0
3078,375	2	-0,002
3088,934	1,5	-0,024
3099,476	0,5	-0,486
3110,023	-0,5	-1,427
3120,57	-3	-2,453
3131,118	-6,5	-3,187
3141,665	-7	-3,499
3152,207	-7	-3,496
3162,754	-7	-3,489
3173,301	-6	-3,445
3183,843	-4,5	-3,233
3194,384	-2,5	-2,632
3202,358	2	-0,001