Folder: Data-filter--cyclical-tests-BEPE-project-/ensaios_Ciclicos/_newS/_2G20/entrada

Note: README.md
# Data filter (cyclical tests BEPE project)
python aplication to treat data get by fatigue testing machine

File: _2.txt
Time (s)	Load (N)	Displacement (mm)
0	-0,16	-0,035
10,757	2,14	-0,114
21,424	2,82	-0,011
32,092	3,28	-0,001
42,766	3,66	-0,001
53,432	3,94	-0,002
64,136	4,2	-0,004
74,815	4,36	-0,008
85,489	4,24	-0,026
96,174	3,14	-0,094
106,871	1,26	-0,251
117,563	-0,72	-0,49
128,248	-4,2	-1,001
138,939	-7,1	-1,261
149,649	-8,06	-1,426
160,352	-10,26	-1,667
171,068	-14,4	-1,937
181,771	-14,66	-2,144
192,48	-19,42	-2,573
203,202	-24,4	-2,963
213,923	-25,7	-3,205
224,639	-26,02	-3,5
235,348	-26,02	-3,499
246,051	-26,04	-3,499
256,761	-26,06	-3,496
267,482	-25,62	-3,481
278,209	-24,98	-3,466
288,913	-23,4	-3,414
299,646	-23,56	-3,404
310,35	-21,28	-3,306
321,071	-19,84	-3,262
331,792	-18,18	-3,113
342,52	-18,8	-3,083
353,241	-17,22	-2,966
363,975	-16,28	-2,842
374,702	-12,96	-2,691
385,435	-14,36	-2,687
396,175	-13,64	-2,647
406,896	-13	-2,502
417,629	-11,06	-2,321
428,357	-10,68	-2,319
439,09	-7,98	-2,164
449,818	-8,72	-2,126
460,557	-7,76	-2,011
471,284	-5,94	-1,839
482,024	-3,9	-1,582
492,787	-4,04	-1,526
503,521	-2,3	-1,408
514,248	-1,58	-1,272
524,975	-0,98	-1,174
535,709	1,48	-0,898
546,454	2,88	-0,788
557,193	3,34	-0,739
567,921	3,98	-0,586
578,648	4,68	-0,572
589,388	4,3	-0,592
600,127	5,82	-0,458
610,86	6,78	-0,136
621,612	6,78	-0,264
632,339	6,82	-0,165
643,049	6,88	-0,001
653,794	6,94	-0,001
664,515	6,96	-0,001
675,243	7	-0,002
685,994	6,98	-0,001
696,722	7,02	-0,001
707,455	7,02	-0,001
718,206	7	-0,011
728,952	7,02	0
739,685	7,08	-0,001
750,425	7,14	-0,002
761,146	7,18	-0,004
771,891	7,12	-0,013
782,619	6,66	-0,04
793,358	6,02	-0,066
804,091	4,68	-0,157
814,825	2,78	-0,381
825,576	0,88	-0,504
836,328	2,48	-0,402
847,037	-1,56	-0,863
857,8	-1,9	-0,893
868,54	-4,4	-1,186
879,267	-6,46	-1,488
890,006	-9,46	-1,834
900,752	-10,66	-1,913
911,491	-11,04	-1,92
922,231	-11,44	-1,988
932,964	-13,62	-2,224
943,697	-16,38	-2,388
954,455	-16,36	-2,426
965,176	-16,88	-2,575
975,904	-18,68	-2,703
986,655	-18,14	-2,676
997,376	-19,24	-2,756
1008,116	-19,72	-2,886
1018,849	-20,98	-2,817
1029,565	-20,52	-2,911
1040,292	-23,68	-3,203
1051,019	-23,62	-3,5
1061,759	-23,58	-3,496
1072,486	-23,52	-3,499
1083,22	-23,48	-3,499
1093,947	-23,46	-3,499
1104,662	-23,44	-3,496
1115,384	-23,32	-3,492
1126,105	-23,28	-3,49
1136,844	-23,12	-3,486
1147,584	-23,16	-3,482
1158,341	-23,1	-3,485
1169,081	-22,86	-3,48
1179,826	-22,94	-3,481
1190,583	-22,9	-3,481
1201,341	-23	-3,482
1212,104	-23,06	-3,492
1222,838	-22,88	-3,486
1233,571	-22,78	-3,483
1244,322	-22,78	-3,487
1255,05	-22,46	-3,484
1265,807	-22,74	-3,496
1276,54	-22,76	-3,498
1287,28	-22,78	-3,498
1297,995	-22,8	-3,498
1308,747	-22,54	-3,499
1319,48	-22,46	-3,5
1330,213	-22,42	-3,498
1340,959	-22,4	-3,4
1351,698	-22,36	-3,382
1362,413	-22,32	-3,394
1373,141	-22,2	-3,331
1383,862	-22,22	-3,452
1394,62	-22,18	-3,481
1405,371	-22,1	-3,5
1416,116	-22,08	-3,499
1426,844	-22,06	-3,499
1437,589	-22,02	-3,499
1448,317	-22,02	-3,498
1459,05	-21,98	-3,498
1469,777	-21,88	-3,498
1480,511	-21,72	-3,497
1491,256	-21,68	-3,497
1501,972	-21,6	-3,494
1512,693	-21,5	-3,494
1523,438	-21,34	-3,489
1534,16	-20,92	-3,481
1544,917	-21,02	-3,48
1555,644	-20,7	-3,465
1566,384	-20,06	-3,448
1577,129	-19,54	-3,428
1587,863	-19,08	-3,415
1598,6	-18,3	-3,39
1609,353	-17,36	-3,392
1620,087	-18,9	-3,416
1630,82	-20,3	-3,47
1641,56	-20,76	-3,495
1652,311	-20,72	-3,499
1663,032	-20,64	-3,5
1673,772	-20,56	-3,471
1684,523	-18,7	-3,008
1695,25	-15,16	-2,724
1705,996	-9,98	-2,222
1716,717	-10,76	-2,276
1727,445	-10,26	-2,162
1738,202	-7,88	-1,955
1748,929	-5,12	-1,657
1759,663	-3,56	-1,348
1770,408	0,04	-0,952
1781,136	2,16	-0,568
1791,863	4,76	-0,225
1802,584	6,3	-0,124
1813,318	7,4	-0,034
1824,033	7,86	-0,013
1834,767	7,94	-0,004
1845,494	7,94	-0,004
1856,221	7,94	-0,007
1866,955	7,92	-0,006
1877,7	7,88	-0,012
1888,433	7,86	-0,01
1899,161	7,82	-0,017
1909,894	7,64	-0,022
1920,64	7,58	-0,028
1931,379	7,86	-0,013
1942,124	7,86	-0,01
1952,876	7,86	-0,014
1963,579	7,54	-0,03
1974,307	7,46	-0,035
1985,052	7,7	-0,023
1995,797	7,42	-0,04
2006,543	6,86	-0,062
2017,27	6,2	-0,103
2028,016	7,1	-0,059
2038,749	6,6	-0,086
2049,476	6,48	-0,086
2060,222	7,54	-0,03
2070,955	7,8	-0,014
2081,67	7,92	-0,004
2092,404	7,92	-0,003
2103,137	7,9	-0,002
2113,865	7,86	-0,001
2124,586	7,84	-0,125
2135,307	7,5	-0,261
2146,035	7,06	-0,43
2156,762	5,38	-0,534
2167,501	4,62	-0,682
2178,223	2,94	-0,877
2188,95	1,42	-1,071
2199,672	2,18	-1,133
2210,399	-0,88	-1,422
2221,138	-2,84	-1,702
2231,866	-2,36	-1,656
2242,581	-0,9	-1,472
2253,297	-1,84	-1,552
2264,042	-1,52	-1,571
2274,775	-3,06	-1,752
2285,503	-3,02	-1,838
2296,236	-3,68	-1,881
2306,982	-5	-2,086
2317,715	-6,12	-2,267
2328,442	-5,28	-2,194
2339,17	-6,24	-2,26
2349,885	-5,72	-2,239
2360,624	-6,64	-2,42
2371,37	-7,62	-2,517
2382,085	-6,82	-2,47
2392,825	-9,46	-2,723
2403,564	-10,3	-3,03
2414,291	-13,96	-3,312
2425,007	-16,66	-3,444
2435,74	-16,94	-3,469
2446,456	-16,84	-3,465
2457,201	-17,02	-3,481
2467,94	-17,36	-3,495
2478,68	-17,26	-3,499
2489,413	-17,1	-3,421
2500,152	-14,46	-2,957
2510,898	-11,32	-2,71
2521,613	-12,98	-2,752
2532,341	-9,24	-2,425
2543,068	-7,78	-2,139
2553,825	-3,5	-1,589
2564,553	-2,18	-1,364
2575,268	-0,42	-1,093
2585,996	2,02	-0,629
2596,735	3,62	-0,39
2607,462	5,48	-0,147
2618,22	7,08	-0,054
2628,941	7,24	-0,042
2639,692	7,72	-0,013
2650,438	7,8	-0,004
2661,171	7,78	-0,002
2671,905	7,76	-0,001
2682,62	7,76	-0,001
2693,353	7,72	-0,002
2704,081	7,72	0
2714,802	7,7	-0,07
2725,53	7,26	-0,29
2736,245	5,8	-0,501
2746,966	6,18	-0,457
2757,682	4,94	-0,596
2768,409	2,6	-0,924
2779,125	2,26	-0,95
2789,852	0,7	-1,234
2800,579	0,3	-1,295
2811,319	-0,48	-1,426
2822,04	-0,2	-1,372
2832,779	-1,08	-1,552
2843,525	-1,6	-1,622
2854,234	-0,76	-1,508
2864,95	0,46	-1,322
2875,695	-0,74	-1,468
2886,41	-1,82	-1,708
2897,138	-2,08	-1,685
2907,865	-2,9	-1,878
2918,593	-2,64	-1,858
2929,326	-2,86	-1,933
2940,053	-3,48	-1,983
2950,781	-2,56	-1,869
2961,514	-2,3	-1,773
2972,242	-1,48	-1,672
2982,981	-1,22	-1,593
2993,72	-1,24	-1,64
3004,436	-1,16	-1,647
3015,163	0,68	-1,297
3025,92	-0,52	-1,513
3036,66	-1,22	-1,622
3047,393	-1,96	-1,73
3058,135	-2,48	-1,835
3068,878	-2,74	-1,911
3079,599	-2,2	-1,798
3090,333	-1,72	-1,703
3101,06	-1,4	-1,61
3111,788	-0,12	-1,388
3122,515	1,34	-1,183
3133,254	1,88	-1,128
3144,006	0,5	-1,324
3154,733	1	-1,258
3165,46	0,48	-1,297
3176,458	-6,84	-2,623
3187,245	-9,32	-3,07
3198,093	-12,8	-3,421
3208,862	-14,58	-3,462
3218,821	7,58	0

File: _3.txt
Time (s)	Load (N)	Displacement (mm)
0	-0,2	-0,022
10,647	0,1	-0,432
21,261	1,56	-0,019
31,874	1,8	-0,002
42,482	1,94	-0,005
53,107	1,74	-0,024
63,726	1,94	-0,022
74,364	1,94	-0,025
84,995	1,64	-0,061
95,602	-1,12	-0,284
106,222	-3,38	-0,634
116,829	-6,4	-0,981
127,455	-8,3	-1,265
138,068	-11,1	-1,562
148,675	-16,06	-2,133
159,295	-18,96	-2,384
169,914	-19,7	-2,539
180,558	-21,96	-2,729
191,189	-23,56	-2,952
201,826	-26,96	-3,118
212,452	-26,88	-3,5
223,065	-26,84	-3,499
233,685	-26,72	-3,417
244,322	-26,62	-3,342
254,965	-26,56	-3,499
265,621	-26,48	-3,499
276,258	-26,38	-3,495
286,902	-25,36	-3,475
297,569	-23,82	-3,398
308,212	-15,96	-2,844
318,844	-11,44	-2,213
329,481	-11,46	-2,206
340,142	-12,78	-2,358
350,804	-12,28	-2,326
361,453	-9,24	-2,072
372,115	-8,46	-1,973
382,752	-6,92	-1,744
393,413	-5,56	-1,548
404,081	-5,5	-1,474
414,724	-4,32	-1,259
425,38	-3,84	-1,358
436,029	-3,48	-1,156
446,696	-3,46	-1,15
457,34	-2,62	-0,988
468,007	1,18	-0,585
478,669	2,44	-0,416
489,348	3,28	-0,195
500,027	3,3	-0,032
510,689	3,32	0
521,35	3,34	0
532,018	3,34	-0,019
542,697	3,36	-0,246
553,352	1,84	-0,433
564,026	-0,9	-0,776
574,675	-1,22	-0,894
585,355	-6,38	-1,752
596,01	-9,56	-2,181
606,689	-14,78	-2,789
617,345	-18,14	-3,111
628,012	-16,72	-3,031
638,685	-23,1	-3,438
649,383	-24,2	-3,482
660,062	-24,4	-3,497
670,76	-24,26	-3,321
681,427	-22,28	-2,943
692,1	-18,26	-2,668
702,768	-15,32	-2,366
713,447	-11,42	-1,885
724,121	-5,9	-1,355
734,788	-2,78	-0,803
745,473	-0,1	-0,284
756,159	2,74	-0,07
766,832	3,46	-0,018
777,517	3,66	-0,003
788,167	3,66	-0,001
798,846	3,62	-0,091
809,526	1,12	-0,541
820,205	0,64	-0,635
830,872	-0,6	-0,827
841,54	-2,48	-1,125
852,213	-3,9	-1,389
862,905	-3,86	-1,434
873,602	-5,8	-1,781
884,269	-7,62	-2,01
894,937	-9,12	-2,216
905,61	-11	-2,523
916,314	-16,46	-3,059
926,999	-18,46	-3,284
937,672	-20,5	-3,386
948,334	-22,44	-3,458
959,007	-23,14	-3,486
969,68	-23,26	-3,492
980,354	-23,28	-3,498
991,045	-23,22	-3,5
1001,719	-23,2	-3,311
1012,398	-20,36	-2,964
1023,059	-16,02	-2,558
1033,727	-13,5	-2,276
1044,388	-10,76	-1,97
1055,068	-8,4	-1,767
1065,753	-6,22	-1,438
1076,432	-4,6	-1,169
1087,1	-3,54	-1,059
1097,779	-2,94	-0,945
1108,465	-2,32	-0,772
1119,126	-0,8	-0,478
1129,799	0,56	-0,261
1140,461	0,18	-0,302
1151,122	0,68	-0,229
1161,784	1,22	-0,144
1172,457	2,82	-0,082
1183,142	3,48	-0,034
1193,816	3,88	-0,015
1204,507	4,04	-0,005
1215,18	4,04	-0,003
1225,872	4,02	0
1236,551	3,48	-0,369
1247,231	-0,42	-0,817
1257,904	-2,04	-1,141
1268,565	-2,74	-1,267
1279,251	-3,6	-1,54
1289,936	-4	-1,688
1300,616	-5,12	-1,982
1311,289	-6,38	-2,119
1321,986	-8,46	-2,481
1332,684	-11,08	-2,834
1343,381	-12,1	-3,095
1354,067	-11,08	-3,01
1364,758	-14,36	-3,338
1375,437	-16,24	-3,456
1386,111	-16,14	-3,477
1396,808	-16,3	-3,494
1407,487	-15,88	-3,498
1418,185	-15,58	-3,499
1428,876	-15,42	-3,5
1439,562	-15,32	-3,494
1450,241	-15,2	-3,478
1460,932	-14,58	-3,146
1471,618	-13,24	-2,976
1482,285	-14,84	-3,228
1492,971	-13,72	-3,094
1503,65	-13,24	-3,087
1514,323	-14,22	-3,295
1524,991	-14,06	-3,5
1535,67	-13,84	-3,498
1546,332	-13,52	-3,499
1557,023	-13,24	-3,5
1567,702	-13,08	-3,5
1578,37	-13	-3,499
1589,043	-12,82	-3,499
1599,717	-12,72	-3,499
1610,402	-12,58	-3,5
1621,075	-12,5	-3,5
1631,749	-12,38	-3,449
1642,452	-12,16	-3,203
1653,137	-12,16	-3,372
1663,835	-12,16	-3,494
1674,544	-12,02	-3,283
1685,23	-11,52	-3,07
1695,921	-8,36	-2,839
1706,606	-8,48	-2,808
1717,304	-8,56	-2,817
1727,995	-10,36	-3,107
1738,705	-10,74	-3,073
1749,396	-10,84	-3,166
1760,099	-11,3	-3,5
1770,791	-11,32	-3,498
1781,458	-11,3	-3,497
1792,132	-11,26	-3,496
1802,805	-11,14	-3,489
1813,484	-11,12	-3,495
1824,158	-11,06	-3,498
1834,825	-11,02	-3,496
1845,522	-10,94	-3,493
1856,196	-10,92	-3,495
1866,875	-10,82	-3,489
1877,561	-10,72	-3,49
1888,234	-10,56	-3,484
1898,907	-10,48	-3,484
1909,593	-10,22	-3,471
1920,266	-10,24	-3,47
1930,916	-9,58	-3,441
1941,607	-10,3	-3,486
1952,286	-10,22	-3,485
1962,984	-10,24	-3,488
1973,675	-10,16	-3,491
1984,355	-10,16	-3,496
1995,022	-10,08	-3,497
2005,719	-10	-3,496
2016,399	-9,86	-3,482
2027,078	-9,8	-3,48
2037,763	-9,38	-3,46
2048,449	-8,34	-3,406
2059,11	-6,72	-3,265
2069,808	-7,74	-3,368
2080,481	-6,94	-3,269
2091,172	-6,56	-3,238
2101,84	-4,5	-2,791
2112,543	-4,34	-2,764
2123,241	-4,64	-2,846
2133,92	-3,3	-2,411
2144,587	-2,86	-2,181
2155,273	-2,52	-2,043
2165,958	-2,32	-1,995
2176,668	-1,86	-1,801
2187,353	-1,74	-1,768
2198,038	-1,56	-1,688
2208,736	-1,4	-1,502
2219,409	-1,44	-1,538
2230,094	-1,62	-1,661
2240,768	-1,36	-1,435
2251,435	-1,2	-1,457
2262,133	-1,54	-1,665
2272,806	-2,02	-1,961
2283,479	-2,7	-2,24
2294,153	-2,34	-2,164
2304,832	-2,54	-2,24
2315,512	-2,22	-2,098
2326,191	-2,4	-2,254
2336,87	-2,4	-2,261
2347,544	-2,58	-2,306
2358,223	-2,74	-2,372
2368,891	-2,64	-2,387
2379,564	-3,08	-2,534
2390,267	-3,48	-2,698
2400,941	-2,58	-2,314
2411,614	-2,16	-2,124
2422,3	-1,86	-1,913
2432,985	-1	-1,493
2443,664	-0,86	-1,356
2454,338	-0,1	-0,998
2465,011	0,38	-0,81
2475,69	2,84	-0,401
2486,4	3,56	-0,048
2497,091	3,6	-0,002
2507,789	3,58	-0,005
2518,48	3,4	-0,016
2529,165	3,04	-0,05
2539,845	1,78	-0,18
2550,524	0,82	-0,629
2561,21	0,42	-0,89
2571,907	0,26	-1,018
2582,604	-0,36	-1,473
2593,284	-1,48	-2,057
2603,969	-3,08	-2,55
2614,661	-6,44	-3,167
2625,346	-7,2	-3,499
2636,037	-7,22	-3,496
2646,717	-6,84	-3,463
2657,402	-4,62	-3,258
2668,081	-3,06	-2,791
2678,755	-2,04	-2,284
2689,428	-1,28	-1,815
2700,114	-1,16	-1,633
2710,799	-0,84	-1,41
2721,478	-0,76	-1,3
2732,164	-0,48	-1,204
2742,831	-0,28	-1,033
2753,523	-0,1	-1,063
2764,19	-0,34	-1,047
2774,869	-0,14	-1,032
2785,549	-0,38	-1,028
2796,252	-0,7	-1,337
2806,938	-0,28	-1,229
2817,611	-0,28	-1,095
2828,302	-0,42	-1,14
2838,976	0,3	-0,883
2849,649	-0,16	-1,02
2860,322	0,34	-0,72
2871,002	-0,08	-0,87
2881,693	0,16	-0,831
2892,379	-0,24	-1,154
2903,064	-0,62	-1,351
2913,767	-0,94	-1,653
2924,441	-1,22	-1,891
2935,126	-1,54	-2,161
2945,806	-2,22	-2,615
2956,479	-2,28	-2,618
2967,17	-2,32	-2,711
2977,844	-2,42	-2,805
2988,511	-3,36	-3,203
2999,191	-4,54	-3,39
3009,87	-5,38	-3,45
3020,549	-5,64	-3,466
3031,235	-5,04	-3,41
3041,92	-3,54	-3,283
3052,593	-3,96	-3,272
3063,279	-4,46	-3,36
3073,976	-3,66	-3,271
3084,662	-4,08	-3,352
3095,335	-4,4	-3,376
3106,014	-5,54	-3,47
3116,706	-5,64	-3,475
3127,409	-5,52	-3,487
3138,095	-5,74	-3,493
3148,78	-5,68	-3,487
3159,465	-5,6	-3,476
3170,145	-5,24	-3,456
3180,83	-4,6	-3,42
3191,498	-2,98	-3,186
3201,625	3	0