Folder: Data-filter--cyclical-tests-BEPE-project-/Cycling_tests/_newS/_1G40/entrada

Note: README.md
# Data filter (cyclical tests BEPE project)
python aplication to treat data get by fatigue testing machine

File: _1.txt
Time (s)	Load (N)	Displacement (mm)
0	-0,16	-0,035
10,672	0,74	-0,451
21,274	1,22	-0,359
31,875	2,18	-0,239
42,482	2,2	-0,335
53,108	1,12	-0,498
63,727	2,2	-0,358
74,335	2,92	-0,079
84,937	3,14	-0,006
95,555	3,16	-0,015
106,175	3,16	-0,026
116,812	2,86	-0,057
127,42	2,1	-0,138
138,039	-0,16	-0,332
148,658	-1,42	-0,674
159,296	-1,58	-0,776
169,945	-1,1	-0,631
180,589	0,4	-0,342
191,208	-0,42	-0,491
201,863	1,76	-0,198
212,513	2,98	-0,108
223,168	3,42	-0,052
233,835	4,08	-0,021
244,485	4,08	-0,022
255,116	4,22	-0,011
265,766	4,3	-0,008
276,427	4,34	-0,006
287,058	4,38	-0,006
297,726	4,42	-0,002
308,369	4,44	-0,002
319,013	4,48	-0,001
329,668	4,48	-0,001
340,329	4,5	-0,079
350,991	4,52	-0,228
361,622	3,7	-0,477
372,29	1,72	-0,727
382,94	1,8	-0,791
393,588	0,46	-0,903
404,256	-0,62	-1,195
414,917	-0,6	-1,186
425,585	-3,22	-1,564
436,258	-4,14	-1,706
446,907	-4,04	-1,77
457,575	-5,78	-2,152
468,236	-8,66	-2,431
478,885	-9,54	-2,633
489,553	-9,88	-2,691
500,232	-9,54	-2,721
510,93	-8,56	-2,518
521,585	-7,88	-2,368
532,258	-6,92	-2,249
542,926	-5,84	-2,074
553,575	-1,48	-1,33
564,267	1,98	-0,881
574,922	2,88	-0,619
585,571	5,04	-0,176
596,257	5,04	-0,288
606,894	5,12	-0,001
617,556	4,66	-0,331
628,247	1,92	-0,771
638,914	0,12	-1,086
649,582	-2,72	-1,59
660,273	-6,56	-2,242
670,94	-10,06	-2,781
681,62	-14,84	-3,368
692,287	-16,48	-3,456
702,979	-18,54	-3,49
713,67	-18,6	-3,498
724,35	-18,52	-3,5
735,005	-17,5	-3,14
745,672	-16,82	-3,006
756,364	-13,02	-2,636
767,025	-11,42	-2,394
777,686	-9,66	-2,244
788,348	-8,98	-2,12
799,015	-7,22	-1,938
809,677	-5,5	-1,73
820,338	-5,52	-1,686
831,005	-3,78	-1,394
841,673	-0,9	-0,936
852,328	0,4	-0,651
862,984	2,5	-0,296
873,657	3,18	-0,203
884,318	4,64	-0,074
894,98	4,86	-0,046
905,641	5,14	-0,037
916,302	5,02	-0,049
926,97	5,2	-0,048
937,631	5,44	-0,021
948,305	5,56	-0,01
958,954	5,58	-0,007
969,639	5,6	-0,004
980,295	5,6	-0,002
990,962	5,58	-0,072
1001,612	4,68	-0,412
1012,273	3,08	-0,732
1022,952	-0,5	-1,286
1033,614	-3,24	-1,789
1044,293	-4,98	-2,132
1054,949	-7,82	-2,549
1065,605	-11,8	-3,032
1076,253	-13,92	-3,326
1086,897	-17,24	-3,466
1097,558	-17,6	-3,493
1108,226	-17,52	-3,498
1118,905	-17,4	-3,349
1129,56	-13,66	-2,862
1140,216	-9,52	-2,364
1150,871	-6,74	-1,94
1161,538	-3,84	-1,563
1172,206	-2,82	-1,297
1182,861	-1,26	-1,054
1193,511	0,42	-0,804
1204,178	1,44	-0,549
1214,851	3,64	-0,215
1225,519	4,22	-0,111
1236,192	5,34	-0,049
1246,842	5,54	-0,029
1257,497	5,66	-0,021
1268,146	5,8	-0,008
1278,796	5,8	-0,003
1289,457	5,8	-0,002
1300,131	5,8	-0,002
1310,792	5,8	-0,002
1321,441	5,8	-0,001
1332,103	5,78	-0,001
1342,752	5,78	-0,001
1353,419	5,76	0
1364,069	5,76	-0,106
1374,7	5,76	-0,022
1385,368	5,76	-0,012
1396,029	5,78	0
1406,678	5,76	-0,022
1417,37	5,74	-0,28
1428,025	5,74	-0,215
1438,711	5,36	-0,372
1449,348	5,34	-0,3
1460,021	5,34	-0,359
1470,683	5,58	-0,263
1481,344	5,74	-0,316
1492,012	5,12	-0,452
1502,673	3,58	-0,566
1513,328	4,36	-0,581
1523,966	5	-0,467
1534,621	5,06	-0,488
1545,295	5,2	-0,464
1555,956	5,36	-0,391
1566,617	4,44	-0,5
1577,267	5,2	-0,313
1587,928	4,28	-0,545
1598,595	5,14	-0,438
1609,257	4,46	-0,568
1619,9	3,4	-0,762
1630,556	1,86	-0,884
1641,235	0,76	-1,112
1651,902	-0,7	-1,357
1662,54	-0,02	-1,351
1673,207	0	-1,292
1683,881	-0,92	-1,497
1694,548	-1,38	-1,556
1705,191	-0,26	-1,372
1715,859	-0,02	-1,246
1726,502	1,94	-0,917
1737,182	1,66	-0,919
1747,849	2,4	-0,834
1758,522	3,68	-0,646
1769,178	3,4	-0,661
1779,839	3,06	-0,763
1790,483	2,62	-0,765
1801,162	1,28	-1,011
1811,805	2,6	-0,817
1822,461	2,92	-0,767
1833,146	2,62	-0,858
1843,807	0,78	-1,152
1854,451	-0,36	-1,356
1865,1	0,06	-1,336
1875,774	-0,38	-1,413
1886,429	-0,58	-1,38
1897,072	-0,4	-1,35
1907,722	-0,62	-1,462
1918,371	-2	-1,791
1929,021	-2,42	-1,888
1939,682	-3,22	-2,118
1950,331	-3,9	-2,241
1960,993	-4	-2,44
1971,666	-5,52	-2,555
1982,322	-4,84	-2,442
1993,007	-5,3	-2,537
2003,68	-5,42	-2,556
2014,336	-4,9	-2,549
2025,003	-6,46	-2,752
2035,653	-5,8	-2,693
2046,308	-5,54	-2,633
2056,969	-4,84	-2,518
2067,619	-4,34	-2,386
2078,268	-3,26	-2,136
2088,942	-2,86	-2,023
2099,591	-1,22	-1,768
2110,276	-1,7	-1,746
2120,938	-0,18	-1,307
2131,611	1,52	-0,996
2142,284	4,72	-0,451
2152,94	5,58	0
2163,589	5,58	-0,001
2174,257	5,54	-0,014
2184,924	3	-0,225
2195,567	0,26	-1,085
2206,211	-4,42	-2,168
2216,866	-10,68	-3,046
2227,516	-12,16	-3,496
2238,165	-11,38	-3,437
2248,827	-5,94	-2,753
2259,482	-1,26	-1,72
2270,131	2,12	-0,87
2280,787	5,4	0
2291,454	5,44	-0,005
2302,121	5,24	-0,024
2312,789	4,06	-0,119
2323,45	3,2	-0,161
2334,118	3,5	-0,152
2344,774	2,14	-0,4
2355,434	1,64	-0,514
2366,078	0,86	-0,849
2376,745	-0,6	-1,249
2387,424	-1,94	-1,67
2398,062	-2,84	-1,85
2408,717	-2,44	-1,816
2419,379	-2,46	-1,835
2430,058	-1,68	-1,583
2440,713	-2,26	-1,792
2451,369	-2,2	-1,65
2462,036	-0,96	-1,41
2472,692	-1,98	-1,732
2483,347	-3,52	-1,978
2493,996	-3,12	-1,967
2504,67	-1,72	-1,607
2515,319	-0,72	-1,3
2525,974	0,08	-1,093
2536,648	0,2	-1,02
2547,291	-0,14	-1,14
2557,947	-0,28	-1,238
2568,608	-0,78	-1,353
2579,275	-1,48	-1,555
2589,925	-1,44	-1,5
2600,58	-1,2	-1,407
2611,224	-1,02	-1,463
2621,873	-1,04	-1,383
2632,54	-0,38	-1,26
2643,196	-0,28	-1,162
2653,839	-0,14	-1,154
2664,501	-0,52	-1,295
2675,15	-1,06	-1,429
2685,811	-1,98	-1,654
2696,485	-1,94	-1,704
2707,134	-3,54	-2,071
2717,79	-5,36	-2,375
2728,451	-4,82	-2,309
2739,112	-4,1	-2,254
2749,768	-6,3	-2,628
2760,423	-6,84	-2,764
2771,096	-6,48	-2,643
2781,764	-6,24	-2,61
2792,419	-5,18	-2,448
2803,105	-4,92	-2,389
2813,76	-5,6	-2,56
2824,421	-6,04	-2,528
2835,089	-3,82	-2,225
2845,744	-3,32	-2,029
2856,406	-2,1	-1,798
2867,073	-1,6	-1,602
2877,735	-0,92	-1,387
2888,414	-0,22	-1,151
2899,075	0,4	-0,932
2909,725	0,1	-1,028
2920,38	-0,06	-1,008
2931,023	0,26	-1,03
2941,691	0,66	-0,893
2952,37	0,18	-0,93
2963,026	0,92	-0,777
2973,687	1,3	-0,626
2984,348	1,38	-0,592
2995,016	1,24	-0,582
3005,683	1,42	-0,555
3016,35	1,74	-0,345
3027,006	2,48	-0,23
3037,673	2,38	-0,234
3048,329	2,32	-0,273
3059,002	2,5	-0,262
3069,663	3,32	-0,113
3080,319	4,08	-0,068
3090,98	4,64	-0,03
3101,63	4,9	-0,012
3112,291	4,94	-0,006
3122,958	4,94	-0,002
3133,614	4,94	-0,002
3144,275	4,92	0
3154,925	4,9	0
3165,598	4,62	-0,332
3176,265	3,26	-0,524
3186,927	1,28	-0,92
3195,176	4,9	-0,001

File: _2.txt
Time (s)	Load (N)	Displacement (mm)
0	-0,08	-0,027
10,611	1,14	-0,001
21,176	1,28	-0,013
31,736	-0,32	-0,153
42,307	-3,48	-0,748
52,878	-7,6	-1,376
63,444	-13,32	-2,147
74,009	-18,52	-2,725
84,568	-21,96	-3,473
95,14	-21,92	-3,498
105,705	-21,68	-3,486
116,271	-20,88	-3,461
126,854	-19,66	-3,432
137,425	-18,64	-3,38
147,991	-19,2	-3,413
158,562	-19,44	-3,418
169,134	-18,98	-3,421
179,711	-18,16	-3,401
190,282	-18,92	-3,392
200,86	-19,26	-3,414
211,431	-20,28	-3,461
222,015	-20,3	-3,469
232,616	-20,6	-3,488
243,211	-20,66	-3,496
253,795	-20,62	-3,496
264,39	-20,44	-3,499
274,986	-20,42	-3,499
285,581	-20,36	-3,494
296,182	-20,26	-3,22
306,772	-19,64	-3,07
317,379	-17,56	-2,898
327,975	-19,66	-3,088
338,576	-18,1	-2,98
349,177	-18,4	-2,986
359,773	-18,6	-3,055
370,362	-18,8	-3,099
380,994	-18,28	-3,008
391,607	-14,1	-2,597
402,208	-12,16	-2,337
412,816	-9,76	-2,026
423,435	-6,98	-1,618
434,048	-3,52	-1,105
444,674	-1,06	-0,497
455,275	0,34	-0,175
465,913	2	-0,038
476,538	2,12	-0,049
487,157	2,18	-0,041
497,783	2,26	-0,03
508,378	1,76	-0,085
518,998	0,56	-0,208
529,611	1,1	-0,122
540,224	2,5	-0,012
550,808	2,58	-0,003
561,415	2,56	-0,001
572,041	-0,3	-0,771
582,654	-2,28	-1,169
593,273	-3,84	-1,515
603,911	-6,74	-2,11
614,536	-9,26	-2,516
625,162	-10,14	-2,801
635,781	-9,32	-2,662
646,43	-8,66	-2,54
657,092	-10,22	-2,669
667,735	-11,9	-2,964
678,367	-12,24	-3,156
689,004	-12,62	-3,042
699,647	-13,68	-3,163
710,291	-15,1	-3,308
720,928	-17,8	-3,456
731,559	-18,66	-3,492
742,185	-18,66	-3,498
752,813	-18,62	-3,498
763,436	-18,58	-3,499
774,067	-18,54	-3,482
784,674	-18,54	-3,499
795,312	-18,5	-3,497
805,967	-18,46	-3,496
816,605	-18,22	-3,485
827,26	-17,9	-3,476
837,879	-18,2	-3,485
848,511	-18,32	-3,493
859,142	-18,32	-3,494
869,786	-18,32	-3,499
880,423	-18,28	-3,5
891,048	-18,26	-3,486
901,668	-17,62	-3,07
912,299	-11,32	-2,444
922,937	-7,46	-1,889
933,568	-4,92	-1,537
944,217	-3,74	-1,265
954,843	-2,32	-0,923
965,486	-1,14	-0,67
976,123	-0,92	-0,544
986,767	1,12	-0,174
997,386	1,34	-0,156
1008,006	1,72	-0,1
1018,637	1,98	-0,06
1029,274	2,6	-0,023
1039,918	2,54	-0,029
1050,537	2,66	-0,02
1061,17	2,6	-0,024
1071,782	2,52	-0,039
1082,401	2,6	-0,028
1093,015	2,74	-0,013
1103,64	2,7	-0,018
1114,284	2,72	-0,012
1124,933	2,82	-0,008
1135,547	2,74	-0,014
1146,172	2,56	-0,028
1156,803	2,8	-0,012
1167,447	2,86	-0,002
1178,078	2,86	-0,001
1188,703	2,86	-0,022
1199,329	2,64	-0,34
1209,984	1,8	-0,562
1220,628	-0,96	-0,98
1231,271	-1,94	-1,242
1241,908	-1,76	-1,226
1252,558	-3,12	-1,62
1263,231	-5,04	-2,17
1273,886	-6,24	-2,477
1284,53	-7,68	-2,787
1295,167	-8,7	-2,952
1305,799	-8,3	-3,063
1316,43	-9,08	-3,065
1327,049	-9,62	-3,058
1337,675	-10,62	-3,242
1348,318	-11,28	-3,325
1358,968	-11,22	-3,317
1369,617	-11,78	-3,412
1380,26	-13,42	-3,451
1390,916	-13,58	-3,475
1401,559	-13,72	-3,483
1412,197	-13,68	-3,484
1422,834	-13,6	-3,488
1433,453	-13,5	-3,487
1444,079	-13,56	-3,49
1454,71	-13,56	-3,494
1465,342	-13,5	-3,494
1475,973	-13,34	-3,49
1486,604	-13,24	-3,484
1497,254	-13,16	-3,479
1507,885	-12,44	-3,453
1518,516	-12,42	-3,454
1529,136	-11,62	-3,398
1539,767	-11,24	-3,412
1550,387	-11,02	-3,383
1561,036	-10,24	-3,32
1571,679	-7,78	-3,104
1582,305	-4,08	-2,298
1592,93	-3,4	-2,041
1603,55	-2,3	-1,604
1614,175	-1,54	-1,372
1624,794	-1,6	-1,393
1635,414	-1,2	-1,19
1646,051	-1	-1,174
1656,677	-2	-1,554
1667,308	-2,44	-1,693
1677,951	-2,92	-1,935
1688,571	-3,32	-2,098
1699,22	-5,04	-2,519
1709,882	-6,64	-2,951
1720,525	-6,28	-3,011
1731,15	-6,84	-3,174
1741,788	-8,5	-3,364
1752,437	-8,5	-3,327
1763,087	-9,32	-3,408
1773,724	-10,04	-3,469
1784,367	-10,22	-3,493
1795,011	-10,12	-3,498
1805,654	-10,04	-3,499
1816,291	-9,94	-3,294
1826,917	-9,9	-3,182
1837,566	-6,9	-2,807
1848,228	-4,54	-2,321
1858,853	-3,34	-2,186
1869,508	-2,3	-1,932
1880,134	-1,78	-1,753
1890,777	-1,12	-1,496
1901,427	-0,7	-1,374
1912,064	0	-0,902
1922,695	0,26	-0,8
1933,315	0,36	-0,737
1943,946	0,8	-0,487
1954,584	1,3	-0,276
1965,209	1,76	-0,143
1975,84	2,08	-0,078
1986,472	2,44	-0,054
1997,097	2,02	-0,092
2007,711	1,26	-0,217
2018,348	1,04	-0,338
2028,979	1,22	-0,3
2039,623	1	-0,388
2050,272	0,94	-0,376
2060,897	0,7	-0,576
2071,535	0,22	-0,88
2082,196	-0,18	-1,064
2092,828	-0,6	-1,26
2103,465	-0,98	-1,485
2114,108	-1,08	-1,535
2124,734	-1,32	-1,735
2135,359	-1,6	-1,834
2146,003	-2,34	-2,097
2156,628	-3,52	-2,423
2167,259	-5,92	-2,843
2177,897	-6,04	-2,898
2188,522	-6,38	-2,927
2199,166	-7,04	-3,015
2209,815	-7,78	-3,202
2220,452	-7,16	-3,124
2231,102	-8	-3,406
2241,751	-7,98	-3,5
2252,383	-7,98	-3,499
2263,02	-7,98	-3,499
2273,639	-7,96	-3,498
2284,277	-7,92	-3,496
2294,914	-7,88	-3,492
2305,564	-7,88	-3,493
2316,201	-7,82	-3,494
2326,82	-7,78	-3,49
2337,464	-7,72	-3,488
2348,107	-7,68	-3,491
2358,744	-7,68	-3,493
2369,382	-7,56	-3,485
2380,007	-7,42	-3,477
2390,633	-7,4	-3,479
2401,27	-7,18	-3,464
2411,883	-7,1	-3,454
2422,509	-6,8	-3,449
2433,122	-6,32	-3,413
2443,766	-6,96	-3,457
2454,391	-6,74	-3,428
2465,034	-6,42	-3,434
2475,672	-6,78	-3,44
2486,297	-5,94	-3,38
2496,905	-4,54	-3,193
2507,548	-4,38	-3,152
2518,191	-4,86	-3,269
2528,847	-6,02	-3,402
2539,472	-6,22	-3,444
2550,116	-6,8	-3,471
2560,747	-6,02	-3,461
2571,384	-6,92	-3,481
2582,016	-6,68	-3,466
2592,653	-5,9	-3,432
2603,297	-6,36	-3,456
2613,94	-6,74	-3,48
2624,577	-6,88	-3,493
2635,233	-6,88	-3,499
2645,888	-6,82	-3,412
2656,531	-6,8	-3,5
2667,163	-6,76	-3,486
2677,812	-6,76	-3,499
2688,426	-6,72	-3,499
2699,075	-6,7	-3,498
2709,7	-6,66	-3,499
2720,332	-6,62	-3,499
2730,945	-6,6	-3,393
2741,565	-6,56	-3,251
2752,19	-6,54	-3,21
2762,827	-6,54	-3,238
2773,447	-6,5	-3,316
2784,084	-6,48	-3,325
2794,698	-6,18	-3,222
2805,347	-5,62	-3,065
2815,972	-3,82	-2,828
2826,628	-2,42	-2,494
2837,259	-2,42	-2,441
2847,885	-4,4	-2,832
2858,534	-3,88	-2,784
2869,177	-2,78	-2,47
2879,797	-4,48	-2,899
2890,44	-5,48	-3,058
2901,059	-6,26	-3,106
2911,703	-5,34	-3,008
2922,346	-5,6	-3,155
2932,978	-6,22	-3,5
2943,627	-6,2	-3,499
2954,246	-6,2	-3,498
2964,884	-6,18	-3,499
2975,521	-6,16	-3,497
2986,141	-6,16	-3,495
2996,772	-5,94	-3,479
3007,415	-6	-3,48
3018,065	-6,04	-3,488
3028,684	-5,96	-3,481
3039,31	-5,7	-3,464
3049,935	-5,26	-3,412
3060,578	-5,14	-3,412
3071,204	-4,36	-3,368
3081,835	-3,84	-3,255
3092,461	-3,24	-3,102
3103,098	-2,6	-2,862
3113,717	-2,32	-2,745
3124,367	-1,94	-2,595
3134,998	-1,72	-2,415
3145,624	-1,84	-2,519
3156,243	-1,76	-2,497
3166,886	-1,94	-2,557
3177,512	-1,5	-2,343
3185,587	2,46	0

File: _3.txt
Time (s)	Load (N)	Displacement (mm)
0	-0,08	-0,031
10,805	1,52	-0,155
21,569	1,94	-0,009
32,332	2,26	0
43,113	2,48	-0,102
53,901	2,64	-0,221
64,658	2,82	-0,027
75,434	2,96	-0,003
86,203	3,1	-0,001
96,978	3,22	-0,001
107,796	3,3	-0,001
118,577	3,34	-0,091
129,359	3,42	-0,184
140,146	3,46	-0,164
150,933	3,56	-0,297
161,727	1,6	-0,578
172,514	0,1	-0,838
183,295	1,42	-0,744
194,089	-0,42	-0,916
204,876	-1,38	-1,133
215,664	-2,56	-1,272
226,451	-3,66	-1,489
237,22	-4	-1,536
248,008	-4,2	-1,642
258,807	-4,4	-1,722
269,594	-5,82	-1,816
280,394	-7,38	-2,112
291,193	-7,72	-2,143
301,999	-8,74	-2,354
312,798	-8,66	-2,35
323,603	-9,6	-2,513
334,397	-8,92	-2,404
345,202	-8,94	-2,408
355,996	-10,46	-2,623
366,801	-11,02	-2,745
377,606	-13,88	-3,004
388,412	-14,3	-3,098
399,217	-17,2	-3,373
410,028	-19,32	-3,445
420,84	-19,34	-3,47
431,645	-20,08	-3,488
442,457	-20,12	-3,494
453,268	-20,1	-3,497
464,073	-20,04	-3,498
474,909	-19,98	-3,499
485,726	-19,9	-3,388
496,537	-19,84	-3,193
507,343	-16,94	-2,975
518,166	-15,6	-2,71
528,966	-12,62	-2,491
539,789	-10,2	-2,154
550,612	-8,22	-1,92
561,43	-5,58	-1,526
572,253	-4,62	-1,336
583,077	-2,04	-0,971
593,894	0,76	-0,535
604,711	1,9	-0,311
615,529	2,62	-0,142
626,334	3,32	-0,125
637,145	4,02	-0,068
647,981	4,38	-0,04
658,804	4	-0,07
669,628	4,56	-0,034
680,463	4,76	-0,022
691,274	4,82	-0,017
702,11	4,76	-0,022
712,921	4,18	-0,06
723,732	3,92	-0,076
734,544	4,62	-0,042
745,367	4,6	-0,04
756,179	4,36	-0,046
767,02	4,3	-0,052
777,843	3,14	-0,179
788,673	2,3	-0,229
799,496	2,1	-0,229
810,326	2,26	-0,225
821,167	2,6	-0,188
831,996	3,84	-0,087
842,82	4,64	-0,033
853,643	4,8	-0,036
864,448	4,9	-0,023
875,302	5,1	-0,005
886,155	5,12	-0,003
896,973	5,12	-0,005
907,814	5,14	-0,005
918,661	5,14	-0,003
929,479	5,14	-0,002
940,314	5,12	-0,001
951,149	5,08	-0,071
961,991	4,86	-0,285
972,814	4,42	-0,417
983,644	4,44	-0,457
994,455	4,54	-0,352
1005,284	5,12	-0,212
1016,114	5,12	-0,192
1026,925	4,92	-0,244
1037,755	5,1	-0,269
1048,584	4,42	-0,448
1059,407	4,44	-0,36
1070,231	4,92	-0,337
1081,036	5,18	-0,082
1091,841	5,2	0
1102,665	5,24	-0,001
1113,506	5,24	-0,001
1124,312	5,26	-0,002
1135,129	5,28	-0,003
1145,97	5,28	-0,006
1156,83	5,28	-0,007
1167,665	5,3	-0,005
1178,494	5,24	-0,011
1189,33	5,2	-0,016
1200,147	5,1	-0,022
1210,971	5,04	-0,025
1221,8	5,08	-0,028
1232,641	5,24	-0,014
1243,459	5,3	-0,005
1254,276	5,28	-0,002
1265,094	5,26	-0,001
1275,911	5,24	0
1286,728	5,22	-0,07
1297,564	4,96	-0,324
1308,381	2,58	-0,788
1319,198	-0,1	-1,23
1330,022	-2,44	-1,739
1340,839	-4,7	-2,25
1351,645	-6,74	-2,599
1362,474	-9,1	-2,985
1373,285	-12,84	-3,394
1384,121	-13,88	-3,469
1394,968	-14,2	-3,484
1405,797	-14,26	-3,496
1416,615	-14,2	-3,498
1427,45	-14,1	-3,499
1438,292	-13,9	-3,462
1449,121	-11,78	-3,037
1459,938	-10,6	-2,894
1470,78	-6,48	-2,32
1481,609	-4,56	-1,941
1492,439	-3,86	-1,876
1503,268	-3,22	-1,704
1514,121	-1,26	-1,299
1524,933	-1,5	-1,309
1535,78	-0,14	-1,015
1546,603	-0,38	-1,048
1557,439	-0,08	-1,044
1568,262	-0,02	-0,99
1579,092	-0,26	-1,11
1589,915	-0,24	-1,065
1600,756	0,3	-0,945
1611,562	-0,1	-1,031
1622,379	-0,24	-1,051
1633,196	-0,56	-1,137
1644,02	-0,9	-1,26
1654,849	-0,56	-1,201
1665,685	-0,72	-1,232
1676,496	-1,44	-1,341
1687,325	-0,96	-1,27
1698,149	-0,86	-1,288
1708,978	-0,76	-1,2
1719,802	-0,96	-1,298
1730,631	-1,86	-1,477
1741,454	-2,52	-1,69
1752,266	-2,22	-1,641
1763,077	-3,5	-1,749
1773,912	-2,96	-1,798
1784,736	-4,18	-2,018
1795,576	-4,62	-2,158
1806,389	-7,3	-2,528
1817,206	-8,42	-2,644
1828,053	-6,58	-2,414
1838,901	-4,68	-2,195
1849,718	-4,88	-2,237
1860,548	-5,58	-2,289
1871,395	-4,68	-2,175
1882,212	-4,2	-2,138
1893,066	-3,6	-1,931
1903,913	-2,04	-1,652
1914,73	-2,38	-1,732
1925,572	-2,32	-1,686
1936,401	-2,3	-1,684
1947,225	-1,66	-1,463
1958,048	-0,22	-1,155
1968,865	-0,52	-1,225
1979,683	-0,16	-1,006
1990,5	0,06	-0,969
2001,317	-0,16	-1,011
2012,147	1,32	-0,625
2022,958	1,38	-0,518
2033,8	2,62	-0,222
2044,605	3,36	-0,15
2055,428	3,76	-0,094
2066,251	4,68	-0,03
2077,063	4,66	-0,031
2087,893	4,82	-0,018
2098,722	4,92	-0,009
2109,533	4,9	-0,007
2120,357	4,9	-0,006
2131,198	4,9	-0,003
2142,009	4,9	-0,004
2152,839	4,88	-0,003
2163,662	4,88	-0,003
2174,486	4,88	-0,001
2185,303	4,86	0
2196,114	4,84	-0,16
2206,944	3,54	-0,582
2217,767	1,12	-0,977
2228,608	-0,84	-1,56
2239,432	-2,52	-2,063
2250,273	-4,1	-2,476
2261,097	-5,14	-2,91
2271,926	-8,38	-3,318
2282,773	-9,86	-3,444
2293,591	-10,54	-3,48
2304,426	-10,68	-3,497
2315,238	-10,6	-3,498
2326,079	-10,54	-3,499
2336,92	-10,46	-3,496
2347,738	-10,38	-3,35
2358,567	-7,76	-2,936
2369,408	-7,04	-2,769
2380,232	-6,12	-2,631
2391,061	-5,68	-2,428
2401,891	-4,48	-2,294
2412,708	-4	-2,254
2423,519	-4,38	-2,354
2434,337	-4,06	-2,321
2445,172	-4,24	-2,274
2455,989	-4,02	-2,209
2466,831	-3,66	-2,154
2477,654	-3,04	-2,102
2488,49	-2,76	-1,959
2499,319	-2,46	-1,94
2510,136	-3,1	-2,068
2520,96	-2,74	-1,974
2531,801	-2,36	-1,87
2542,637	-2,18	-1,854
2553,46	-1,6	-1,668
2564,283	-1,48	-1,548
2575,083	-1,78	-1,619
2585,918	-1,6	-1,638
2596,741	-1,62	-1,644
2607,577	-1,5	-1,629
2618,412	-1,74	-1,73
2629,23	-2,42	-1,856
2640,065	-2,06	-1,798
2650,906	-2,06	-1,811
2661,718	-2,48	-1,884
2672,559	-1,38	-1,54
2683,371	-1,6	-1,674
2694,194	-1,2	-1,516
2705,011	-1,06	-1,49
2715,829	-0,82	-1,346
2726,664	-0,34	-1,192
2737,499	0,38	-0,925
2748,311	0,28	-0,91
2759,128	0,52	-0,828
2769,934	0,54	-0,804
2780,763	1,02	-0,657
2791,58	1,7	-0,28
2802,416	2,44	-0,183
2813,239	2,92	-0,124
2824,068	4,08	-0,032
2834,88	4,28	-0,021
2845,715	4,3	-0,02
2856,539	4,42	-0,008
2867,344	4,44	-0,006
2878,167	4,44	-0,004
2888,979	4,42	-0,004
2899,808	4,44	-0,003
2910,644	4,44	-0,002
2921,497	4,42	-0,001
2932,332	4,38	0
2943,144	4,38	0
2953,967	4,38	-0,004
2964,784	3,96	-0,228
2975,614	3,64	-0,493
2986,425	2,04	-0,704
2997,249	2,12	-0,792
3008,078	1,14	-0,948
3018,889	0,26	-1,169
3029,695	0,78	-1,014
3040,524	0,08	-1,196
3051,335	-0,14	-1,342
3062,141	-0,24	-1,42
3072,97	-0,62	-1,646
3083,8	-1,44	-1,909
3094,629	-1,42	-1,952
3105,452	-1,66	-2,047
3116,27	-2,02	-2,272
3127,111	-2,14	-2,32
3137,935	-1,64	-2,054
3148,752	-1,5	-1,971
3159,581	-1,06	-1,822
3170,399	-0,96	-1,732
3181,216	-0,7	-1,626
3192,051	-1,04	-1,728
3202,851	-1,02	-1,733
3213,668	-0,78	-1,702
3224,492	-0,78	-1,706
3235,309	-0,88	-1,727
3239,269	4,28	0

File: _4.txt
Time (s)	Load (N)	Displacement (mm)
0	-0,1	-0,036
10,751	-1,16	-0,775
21,424	-1,18	-0,774
32,109	-0,86	-0,816
42,789	-2,16	-0,998
53,468	-4,12	-1,302
64,166	-4,12	-1,315
74,863	-4,72	-1,459
85,548	-4,62	-1,496
96,234	-4,8	-1,474
106,919	-4,14	-1,416
117,623	-5,62	-1,749
128,32	-7,08	-1,994
139,005	-9,38	-2,504
149,721	-13,66	-2,989
160,443	-17,86	-3,396
171,133	-20,22	-3,483
181,855	-20,26	-3,498
192,576	-20,08	-3,5
203,292	-19,94	-3,354
214,001	-19,82	-3,272
224,74	-15,78	-2,754
235,438	-12,26	-2,374
246,165	-8,26	-1,644
256,887	-4,98	-1,433
267,602	-3,44	-1,262
278,317	-0,86	-0,762
289,039	0,84	-0,384
299,736	2,3	-0,154
310,469	3,68	-0,045
321,203	4,18	-0,009
331,918	4,18	-0,001
342,658	3,92	-0,302
353,373	0,34	-0,804
364,082	-0,84	-1,025
374,84	-2,86	-1,454
385,573	-7,48	-2,31
396,289	-8,94	-2,672
407,004	-13,7	-3,241
417,737	-17,8	-3,45
428,441	-18,36	-3,485
439,168	-18,5	-3,497
449,907	-18,38	-3,499
460,647	-18,26	-3,306
471,38	-13,98	-2,71
482,114	-8,2	-2,099
492,847	-5,82	-1,779
503,568	-4,46	-1,53
514,29	-1,22	-0,925
525,023	0,74	-0,558
535,781	2,8	-0,159
546,52	4,54	-0,018
557,259	4,62	-0,002
568,025	4,58	-0,273
578,792	-0,36	-1,062
589,532	-4,52	-1,926
600,253	-7,76	-2,489
610,974	-7,96	-2,589
621,702	-11,04	-2,926
632,447	-11,14	-3,013
643,204	-13,26	-3,226
653,95	-14,44	-3,428
664,683	-17,02	-3,471
675,441	-17,32	-3,48
686,174	-17,52	-3,492
696,937	-17,48	-3,496
707,671	-17,46	-3,497
718,404	-17,44	-3,498
729,143	-17,36	-3,499
739,877	-17,34	-3,499
750,622	-17,32	-3,499
761,356	-17,32	-3,497
772,089	-17,28	-3,499
782,816	-17,28	-3,498
793,544	-17,26	-3,498
804,277	-17,2	-3,499
815,023	-17,1	-3,456
825,75	-13,68	-2,778
836,483	-11,32	-2,608
847,217	-8,64	-2,245
857,962	-5,24	-1,872
868,714	-5,54	-1,77
879,459	-5,5	-1,789
890,192	-4,54	-1,693
900,914	-7,3	-2,12
911,629	-6,84	-2,029
922,344	-13,7	-2,869
933,096	-16,44	-3,222
943,853	-16,84	-3,5
954,593	-16,84	-3,499
965,35	-16,76	-3,401
976,071	-16,74	-3,395
986,811	-14,26	-2,893
997,568	-12,52	-2,75
1008,29	-15,4	-3,04
1019,035	-11,52	-2,664
1029,75	-16,52	-3,446
1040,49	-15,8	-3,162
1051,223	-16,26	-2,979
1061,981	-13,42	-2,868
1072,714	-13,2	-2,886
1083,435	-14,7	-2,94
1094,169	-12,54	-2,818
1104,896	-10,96	-2,604
1115,629	-9,14	-2,437
1126,369	-8,6	-2,396
1137,12	-6,22	-2,035
1147,86	-4,1	-1,616
1158,581	-1,18	-1,059
1169,326	1,22	-0,548
1180,078	0,26	-0,754
1190,805	0	-0,88
1201,539	0,64	-0,756
1212,278	1,22	-0,604
1223,005	2,6	-0,256
1233,757	4,3	-0,09
1244,49	4,2	-0,085
1255,211	1,2	-0,509
1265,957	-1,8	-1,304
1276,684	-5,38	-1,992
1287,418	-14,96	-3,401
1298,169	-15,04	-3,496
1308,896	-13,44	-3,414
1319,636	-9,7	-3,078
1330,357	-4,58	-2,211
1341,085	-2	-1,665
1351,83	-0,84	-1,306
1362,563	-0,94	-1,353
1373,291	1,2	-0,829
1384,012	2,22	-0,68
1394,751	3,12	-0,551
1405,491	3,68	-0,479
1416,212	4,2	-0,419
1426,97	3,54	-0,535
1437,709	3,94	-0,512
1448,454	3,98	-0,541
1459,194	4,64	-0,389
1469,921	5,14	-0,172
1480,655	5,14	-0,18
1491,394	5,08	-0,273
1502,127	5,14	0
1512,861	5,18	-0,001
1523,588	5,2	-0,004
1534,315	5,18	-0,01
1545,043	4,98	-0,031
1555,77	3,92	-0,101
1566,498	2,98	-0,291
1577,243	2,74	-0,285
1587,988	2,94	-0,248
1598,716	2,7	-0,343
1609,449	1,6	-0,555
1620,189	1,62	-0,61
1630,916	1,62	-0,644
1641,66	1,6	-0,595
1652,395	1,6	-0,669
1663,134	1,02	-0,846
1673,892	1,24	-0,757
1684,637	2,04	-0,505
1695,37	2,52	-0,362
1706,104	2,32	-0,388
1716,861	2,48	-0,338
1727,582	1,4	-0,535
1738,316	1,66	-0,63
1749,055	1,6	-0,611
1759,789	1,18	-0,76
1770,522	1,1	-0,764
1781,255	1,34	-0,721
1791,995	0,86	-0,861
1802,71	0,72	-0,967
1813,426	0,22	-1,14
1824,177	-0,2	-1,284
1834,91	-0,56	-1,412
1845,656	-1,58	-1,622
1856,395	-1,28	-1,598
1867,134	-1,08	-1,572
1877,862	0,06	-1,182
1888,589	1,02	-0,791
1899,311	1,06	-0,805
1910,056	2,7	-0,272
1920,807	2,98	-0,198
1931,529	2,34	-0,284
1942,262	2,64	-0,264
1952,99	2,36	-0,311
1963,741	2,52	-0,317
1974,474	2,4	-0,326
1985,214	2,86	-0,226
1995,947	3,06	-0,155
2006,693	3,72	-0,12
2017,42	3,34	-0,152
2028,147	3,1	-0,218
2038,899	2,94	-0,191
2049,644	2,6	-0,248
2060,377	2,32	-0,279
2071,123	2,56	-0,206
2081,85	2,68	-0,24
2092,584	2,52	-0,229
2103,3	2,12	-0,362
2114,014	1,82	-0,494
2124,736	1,3	-0,647
2135,475	1,2	-0,735
2146,238	1,46	-0,538
2156,978	2,4	-0,311
2167,711	2,92	-0,157
2178,445	3,02	-0,175
2189,178	2,62	-0,27
2199,923	3,6	-0,111
2210,651	3,92	-0,076
2221,384	3,4	-0,1
2232,118	3,74	-0,086
2242,845	3,92	-0,069
2253,572	3,74	-0,097
2264,306	3,66	-0,085
2275,039	3,6	-0,102
2285,755	3,16	-0,156
2296,5	2,28	-0,292
2307,227	1,58	-0,501
2317,937	1,12	-0,685
2328,682	1,02	-0,71
2339,415	1,24	-0,635
2350,155	1,48	-0,536
2360,9	1,5	-0,497
2371,634	1,58	-0,502
2382,373	1,42	-0,573
2393,112	0,68	-0,872
2403,87	0,46	-1,007
2414,609	-0,06	-1,295
2425,343	-0,78	-1,673
2436,058	-1,92	-2,007
2446,809	-2,6	-2,25
2457,525	-4,9	-2,772
2468,24	-7,34	-3,1
2478,968	-8,7	-3,5
2489,701	-8,7	-3,499
2500,452	-8,7	-3,497
2511,186	-8,48	-3,481
2521,907	-6	-3,328
2532,634	-4,28	-2,93
2543,368	-2,5	-2,42
2554,083	-1,5	-1,927
2564,817	-0,7	-1,451
2575,556	-0,1	-1,223
2586,277	2,56	-0,616
2597,005	4,44	0
2607,738	4,44	-0,001
2618,466	4,44	-0,003
2629,193	4,32	-0,016
2639,92	3,8	-0,051
2650,654	3,7	-0,065
2661,399	3,18	-0,097
2672,138	1,88	-0,23
2682,878	1,08	-0,558
2693,593	0,1	-1,159
2704,327	-0,32	-1,455
2715,036	-1,22	-1,852
2725,763	-2,68	-2,398
2736,491	-5,94	-2,945
2747,2	-8,12	-3,253
2757,916	-8,12	-3,5
2768,661	-8,1	-3,492
2779,388	-8,12	-3,499
2790,11	-8,1	-3,497
2800,855	-8,1	-3,497
2811,583	-8,06	-3,493
2822,322	-7,9	-3,484
2833,073	-7,56	-3,477
2843,801	-7,48	-3,458
2854,558	-7,7	-3,472
2865,279	-6,9	-3,436
2876,001	-5,68	-3,364
2886,74	-5,78	-3,37
2897,468	-4,78	-3,289
2908,177	-3,12	-2,828
2918,91	-2,74	-2,658
2929,638	-2,52	-2,634
2940,371	-2,46	-2,56
2951,117	-3,14	-2,849
2961,856	-3,28	-2,975
2972,577	-3,44	-3,027
2983,311	-3,74	-3,054
2994,032	-4,68	-3,265
3004,771	-4,44	-3,296
3015,493	-3,98	-3,124
3026,22	-3,34	-3
3036,954	-3,58	-3,09
3047,675	-3,44	-3,052
3058,408	-3,98	-3,163
3069,142	-5,02	-3,307
3079,869	-5,4	-3,36
3090,597	-5,38	-3,408
3101,33	-7,06	-3,468
3112,057	-6,46	-3,441
3122,785	-5,92	-3,423
3133,506	-5,9	-3,418
3144,239	-6,38	-3,434
3154,985	-6,28	-3,433
3165,718	-6,82	-3,46
3176,452	-6,8	-3,466
3187,173	-6,74	-3,464
3197,912	-7,12	-3,479
3208,622	-7,08	-3,478
3218,545	3,86	0