Folder: Data-filter--cyclical-tests-BEPE-project-/ensaios_Ciclicos/_60perc/_3gap/entrada

Note: README.md
# Data filter (cyclical tests BEPE project)
python aplication to treat data get by fatigue testing machine

File: _1.txt
Time (s)	Load (N)	Displacement (mm)
36,177	-10,5	-3,018
45,71	1	-0,057
55,25	-15	-3,488
64,795	1	-0,002
74,364	-15	-3,476
83,928	0	-0,51
93,479	-9,5	-2,407
103,043	-3,5	-1,457
112,624	-4	-1,504
122,206	-7	-2,47
131,769	-1	-0,85
141,333	-8	-2,822
223,246	1,5	-0,001
232,815	-13,5	-3,499
242,391	1,5	-0,046
251,966	-13	-3,208
261,554	0	-0,64
271,135	-7,5	-2,477
280,723	-2	-1,188
290,34	-4,5	-1,778
299,922	-3	-1,666
309,497	-3	-1,446
319,108	-5	-2,458
328,69	0	-0,613
338,277	-9	-3,138
347,853	0,5	-0,198
357,422	-12	-3,461
439,546	-10,5	-3,384
449,127	1,5	-0,043
458,708	-12	-3,474
468,296	1,5	-0,015
477,877	-12,5	-3,493
487,471	1,5	-0,003
497,07	-12	-3,499
506,646	1,5	-0,305
516,239	-7,5	-2,582
525,839	-1,5	-1,219
535,426	-3,5	-1,833
545,014	-3,5	-2,131
554,595	0	-0,823
564,176	-7	-2,919
573,758	0,5	-0,161
583,339	-11,5	-3,442
592,927	1,5	-0,011
602,52	-12	-3,498
612,102	1,5	-0,001
694,117	0	-0,352
703,71	-11	-3,446
713,28	1,5	-0,008
722,849	-12	-3,499
732,431	1,5	0
742,012	-11	-3,085
751,606	0	-0,726
761,187	-4,5	-2,088
770,769	-2,5	-1,776
780,344	-1,5	-1,419
789,926	-4	-2,141
799,507	-0,5	-0,822
809,088	-6,5	-2,994
818,658	1	-0,189
828,233	-8,5	-3,305
837,797	1,5	-0,09
847,372	-11	-3,472
856,954	1,5	-0,008
866,535	-11,5	-3,498
876,105	1,5	-0,002
885,686	-11,5	-3,456
895,262	1	-0,536
904,849	-7,5	-2,565
914,418	-1,5	-1,239
923,988	-3	-1,753
933,581	-3,5	-2,219
943,163	-0,5	-0,804
952,726	-5,5	-2,853
962,29	0	-0,263
971,871	-10,5	-3,429
981,465	1,5	-0,022
991,034	-11	-3,486
1000,609	1,5	-0,004
1010,197	-11	-3,499
1055,932	-1,5	-1,478
1065,502	-2	-1,519
1075,089	-4	-2,354
1084,671	0	-0,616
1094,252	-7,5	-3,283
1103,822	1,5	-0,052
1113,397	-10,5	-3,484
1122,973	1,5	-0,003
1132,554	-11	-3,5
1142,123	1,5	-0,276
1151,693	-8,5	-2,815
1161,262	-1,5	-1,324
1170,838	-2,5	-1,591
1180,401	-3,5	-2,29
1189,977	0	-0,465
1199,552	-9	-3,395
1209,122	1,5	-0,016
1218,703	-10,5	-3,497
1228,272	1,5	-0,001
1237,836	-10	-3,195
1247,399	0	-0,624
1256,963	-6	-2,514
1266,526	-1,5	-1,34
1276,102	-2	-1,522
1285,665	-4	-2,359
1295,229	0	-0,689
1304,798	-7,5	-3,262
1314,38	1,5	-0,051
1323,955	-10,5	-3,485
1333,531	1,5	-0,003
1343,1	-10,5	-3,499
1352,663	1,5	-0,118
1362,227	-10	-2,957
1371,796	-0,5	-0,932
1381,36	-4,5	-2,222
1390,929	-2	-1,779
1400,481	-1	-1,234
1410,044	-4,5	-2,534
1419,602	0	-0,55
1429,165	-8	-3,335
1438,74	1,5	-0,058
1448,322	-10,5	-3,485
1457,891	1,5	-0,003
1467,461	-10,5	-3,5
1477,036	1	-0,45
1486,606	-5,5	-2,446
1496,175	-1,5	-1,396
1505,739	-2,5	-1,718
1515,308	-2	-1,902
1524,878	-0,5	-1,054
1534,435	-5	-2,77
1543,992	0	-0,4
1553,562	-9	-3,412
1563,131	1,5	-0,014
1572,695	-10,5	-3,496
1582,258	1,5	-0,002
1591,81	-10,5	-3,5
1601,379	1,5	-0,317
1610,943	-6,5	-2,619
1620,512	-1	-1,324
1630,076	-2,5	-1,698
1639,645	-2,5	-2,036
1649,208	-0,5	-1,066
1658,76	-4,5	-2,579
1668,311	0	-0,539
1677,875	-7,5	-3,288
1687,438	1,5	-0,051
1697,014	-10,5	-3,49
1706,577	1,5	-0,002
1716,147	-10,5	-3,394
1725,716	0,5	-0,566
1735,28	-5	-2,349
1744,849	-1,5	-1,688
1754,4	-0,5	-1,224
1763,964	-5	-2,756
1773,533	0,5	-0,166
1783,103	-9	-3,427
1792,666	2	-0,012
1802,212	-10	-3,495
1811,775	1,5	-0,002
1821,339	-10	-3,5
1830,908	1,5	-0,443
1840,471	-6,5	-2,614
1850,041	-1	-1,22
1859,604	-2,5	-1,744
1869,174	-3	-2,262
1878,737	0	-0,785
1888,295	-5,5	-2,949
1897,87	1,5	-0,091
1907,434	-8,5	-3,402
1916,991	1,5	-0,018
1926,549	-10	-3,491
1936,124	2	-0,002
1945,693	-10	-3,321
1955,263	1	-0,605
1964,826	-5	-2,448
1974,402	-1	-1,545
1983,983	-1,5	-1,398
1993,535	-3	-2,332
2003,098	0	-0,668
2012,65	-7	-3,268
2022,231	1,5	-0,055
2031,795	-9,5	-3,488
2041,364	2	-0,002
2050,933	-10	-3,445
2060,503	0	-0,602
2070,073	-4	-2,118
2079,63	-1,5	-1,605
2089,181	-1	-1,281
2098,739	-4,5	-2,707
2108,308	1	-0,151
2117,872	-8,5	-3,444
2127,435	2	-0,011
2136,987	-9,5	-3,496
2146,55	1,5	-0,001
2156,107	-9,5	-3,461
2165,671	0,5	-0,552
2175,24	-5	-2,588
2184,816	-1	-1,325
2194,373	-2	-1,748
2203,943	-2,5	-2,12
2213,506	0	-0,828
2223,07	-5,5	-3,063
2232,639	1	-0,098
2242,197	-9	-3,478
2251,766	1,5	-0,004
2261,323	-9,5	-3,499
2270,887	1,5	-0,213
2280,45	-5,5	-2,72
2290,014	-1	-1,224
2299,559	-2	-1,783
2309,117	-2	-2,057
2318,674	0	-0,99
2328,25	-4,5	-2,93
2337,801	0,5	-0,177
2347,365	-9	-3,461
2356,922	2	-0,006
2366,479	-9	-3,498
2376,049	1,5	0
2385,618	-7,5	-2,893
2395,17	0	-0,736
2404,739	-3	-2,144
2414,291	-1,5	-1,719
2423,854	-1	-1,378
2433,412	-3	-2,398
2442,969	0	-0,728
2452,527	-6	-3,245
2462,084	1,5	-0,05
2471,641	-9	-3,482
2481,193	1,5	-0,003
2490,768	-9,5	-3,492
2500,326	1,5	-0,251
2509,883	-5,5	-2,665
2519,441	-0,5	-1,105
2528,998	-2	-1,903
2538,562	-1,5	-1,896
2548,119	0	-0,969
2557,683	-5,5	-3,177
2567,246	1	-0,108
2576,797	-9	-3,48
2586,343	1,5	-0,008
2595,882	-9	-3,499
2605,44	1,5	-0,161
2614,997	-8	-2,894
2624,555	0	-0,778
2634,118	-3	-2,209
2643,682	-1,5	-1,831
2653,227	0	-0,99
2662,79	-5	-2,986
2672,354	1,5	-0,041
2681,929	-8,5	-3,498
2691,511	2	-0,031
2701,068	-7,5	-3,032
2710,638	0	-0,842
2720,195	-3	-2,327
2729,759	0	-0,756
2739,322	-4	-2,505
2748,892	-0,5	-1,384
2758,443	-2	-2,033
2768	-0,5	-1,014
2777,75	-0,5	-1,274
2787,385	-3,5	-2,69
2796,955	0,5	-0,34
2806,536	-6,5	-3,394
2816,094	1,5	-0,052
2825,699	-8	-3,493
2835,479	0	-0,919
2845,348	0	-0,376
2855,188	-8	-3,499
2865,105	-1,5	-1,947
2875,064	2	-0,004
2884,754	-5	-2,808
2894,305	-0,5	-1,282
2904,145	0,5	-0,215
2913,936	-7,5	-3,498
2923,62	1	-0,576
2933,597	0,5	-0,189
2943,316	-7	-3,496
2952,886	1,5	-0,001
2962,683	-1,5	-1,878
2972,739	-7	-3,492
2982,656	-0,5	-1,217
2992,22	-1	-1,598
3001,777	-1,5	-1,944
3011,353	0	-0,948
3021,042	-4	-3,206
3030,605	0,5	-0,233
3040,163	-3,5	-3,203
3049,936	1,5	-0,008
3059,644	-6	-3,499
3069,477	0	-0,598
3079,125	-1,5	-2,179
3088,748	-1,5	-1,926
3098,522	0,5	-0,266
3108,373	-6	-3,499
3118,098	0	-0,974
3128,154	1	-0,082
3138,035	-5,5	-3,217
3147,821	-1	-1,776
3157,48	0	-0,969
3162,226	1,5	-0,001

File: _2.txt
Time (s)	Load (N)	Displacement (mm)
108,438	-1	-0,715
113,074	1,5	-0,002
117,717	-2,5	-1,312
122,368	-10	-3,18
127,011	-14	-3,499
131,673	-5,5	-1,944
136,322	1	-0,089
140,972	1,5	-0,176
145,616	-5	-2,126
150,272	-13,5	-3,472
154,921	-13	-3,119
159,571	-2	-1,096
164,227	1,5	-0,009
168,883	-0,5	-0,877
173,544	-8	-2,885
178,206	-13,5	-3,498
291,569	-13	-3,498
296,245	-5,5	-2,074
300,911	0,5	-0,19
305,567	1,5	-0,003
310,246	-3,5	-1,962
314,92	-12,5	-3,474
319,57	-12,5	-3,13
324,232	-2,5	-1,298
328,905	1,5	-0,015
333,567	-0,5	-0,876
338,229	-7	-2,818
342,903	-12,5	-3,498
347,576	-5	-1,96
352,25	1	-0,084
356,924	1	-0,427
361,586	-5	-2,407
474,985	-4,5	-2,364
479,653	-12	-3,49
484,302	-9	-2,736
488,976	-0,5	-0,814
493,65	1,5	-0,004
498,312	-1,5	-1,217
502,973	-7,5	-3,043
507,629	-12	-3,498
512,309	-5,5	-2,243
516,983	0	-0,351
521,638	1,5	-0,001
526,318	-2	-1,577
530,968	-9,5	-3,307
535,617	-12	-3,498
540,261	-6,5	-2,354
544,929	0	-0,459
549,591	1,5	-0,002
554,246	-1,5	-1,24
558,908	-8	-3,135
563,576	-12	-3,498
568,238	-7,5	-2,489
572,899	-0,5	-0,748
577,567	1,5	-0,004
582,229	-1,5	-1,119
586,885	-7	-2,878
591,546	-12	-3,498
596,22	-5,5	-2,297
600,876	0	-0,484
605,55	1,5	-0,001
610,211	-2	-1,412
614,873	-8,5	-3,231
764,342	-1,5	-1,525
769,007	-10	-3,41
773,66	-10,5	-3,5
778,322	-2,5	-1,68
782,983	1,5	-0,066
787,633	1,5	-0,248
792,295	-3,5	-2,237
796,963	-11	-3,483
801,618	-9	-2,875
806,274	-1	-1,036
810,93	1,5	-0,005
815,58	-1	-1,094
820,235	-6,5	-3,018
824,915	-11	-3,499
829,565	-5	-2,129
834,22	0	-0,249
838,882	1,5	-0,001
843,532	-2	-1,578
848,194	-9,5	-3,417
852,849	-11	-3,486
857,505	-2	-1,518
862,161	1,5	-0,035
866,817	1	-0,38
871,472	-3,5	-2,289
876,14	-11	-3,484
880,784	-10	-3
885,446	-0,5	-1,067
890,095	2	-0,012
894,751	0	-0,786
899,395	-4,5	-2,613
904,056	-11	-3,495
908,718	-6,5	-2,478
913,368	0	-0,6
918,024	1,5	-0,002
922,685	-1,5	-1,377
927,353	-7,5	-3,244
932,003	-11	-3,499
936,659	-3,5	-1,927
941,314	1	-0,113
945,964	1,5	-0,243
950,608	-3	-2,046
955,275	-11	-3,482
959,931	-10	-2,998
964,575	-0,5	-1,016
969,243	1,5	-0,005
973,886	-1,5	-1,314
1304,012	-1,5	-1,443
1308,667	-8,5	-3,35
1313,317	-10,5	-3,486
1317,979	-1	-1,39
1322,635	1,5	-0,021
1327,29	0	-0,79
1331,94	-5	-2,744
1336,59	-10,5	-3,496
1341,245	-5,5	-2,437
1345,895	0	-0,5
1350,539	1,5	-0,001
1355,183	-1,5	-1,672
1359,838	-9,5	-3,417
1364,488	-10,5	-3,318
1369,138	-1	-1,264
1373,794	1,5	-0,012
1378,437	-1	-1,042
1383,081	-5,5	-2,912
1387,737	-10,5	-3,498
1392,387	-3,5	-1,986
1397,048	0,5	-0,161
1401,692	1,5	-0,015
1406,336	-2,5	-1,918
1410,985	-10	-3,465
1415,635	-10	-3,152
1420,285	-1	-1,098
1424,935	1,5	-0,008
1429,584	-1	-1,216
1434,234	-6,5	-3,177
1438,878	-10,5	-3,499
1443,522	-3	-1,844
1556,603	1,5	-0,033
1561,247	-0,5	-1,007
1565,897	-5	-2,893
1570,546	-10,5	-3,498
1575,202	-3,5	-2,081
1579,852	0,5	-0,212
1584,508	1,5	0
1589,151	-2	-1,871
1593,801	-10	-3,451
1598,451	-10	-3,222
1603,112	-1	-1,238
1607,768	1,5	-0,017
1612,418	0	-0,717
1617,068	-4,5	-2,683
1621,723	-10	-3,495
1626,379	-5	-2,47
1631,029	0	-0,588
1635,679	1,5	-0,002
1640,328	-1	-1,423
1644,978	-7,5	-3,306
1649,634	-10	-3,5
1654,284	-1,5	-1,648
1658,933	1,5	-0,036
1663,589	1	-0,637
1668,245	-4,5	-2,678
1672,889	-10	-3,494
1677,544	-5,5	-2,533
1682,194	0	-0,654
1686,862	2	-0,001
1691,511	-1,5	-1,502
1696,157	-8	-3,35
1700,799	-10	-3,499
1705,467	-2,5	-1,8
1710,122	1	-0,081
1714,778	1,5	-0,342
1719,44	-3	-2,367
1724,09	-10	-3,49
1728,739	-6	-2,568
1733,383	0	-0,666
1738,027	1,5	-0,002
1742,671	-1	-1,336
1747,314	-6,5	-3,151
1751,958	-10	-3,499
1756,608	-2,5	-1,899
1761,251	1	-0,128
1765,901	1,5	-0,116
1770,557	-2	-1,941
1775,261	-10	-3,486
1779,904	-6,5	-2,725
1784,56	0	-0,746
1789,216	2	-0,002
1793,872	-1	-1,475
1798,521	-7	-3,278
1803,171	-10	-3,5
1807,833	-1	-1,485
1812,483	1,5	-0,034
1817,138	0	-0,665
1821,788	-4,5	-2,602
1826,438	-10,5	-3,496
1831,099	-5	-2,309
1835,749	0	-0,373
1840,393	1,5	-0,001
1845,049	-1,5	-1,77
1849,704	-9,5	-3,448
1854,354	-10	-3,254
1858,998	-1	-1,309
1863,642	1,5	-0,019
1868,291	0	-0,756
1872,941	-4	-2,725
1877,591	-10	-3,497
1882,241	-3	-1,939
1886,89	1	-0,092
1891,546	1	-0,425
1896,19	-3,5	-2,477
1900,851	-10	-3,494
1905,501	-5	-2,479
1910,151	0	-0,564
1914,807	2	-0,001
2027,912	-0,5	-1,087
2032,568	-4,5	-2,922
2037,212	-9,5	-3,496
2041,861	-4	-2,31
2046,511	0	-0,496
2051,155	1,5	-0,002
2055,805	-1	-1,5
2060,454	-7	-3,311
2065,122	-9,5	-3,5
2069,772	-2	-1,733
2074,416	1	-0,126
2079,065	1,5	-0,019
2083,715	-2	-1,906
2088,359	-8,5	-3,439
2093,014	-9,5	-3,253
2097,658	-1	-1,334
2102,314	1,5	-0,024
2106,958	0,5	-0,622
2111,607	-3,5	-2,527
2116,257	-9,5	-3,494
2120,907	-4,5	-2,508
2125,563	0	-0,633
2130,218	1,5	-0,003
2134,862	-1	-1,271
2139,512	-5,5	-3,101
2144,168	-9,5	-3,499
2148,823	-2	-1,89
2153,467	1	-0,108
2158,117	1,5	-0,18
2162,772	-2,5	-2,134
2167,422	-9	-3,474
2280,516	-2,5	-2,279
2285,154	-8,5	-3,481
2289,809	-8	-2,974
2294,459	-0,5	-1,205
2299,109	1,5	-0,014
2303,752	0	-0,64
2308,396	-3	-2,387
2313,04	-8,5	-3,489
2317,696	-5	-2,706
2322,345	0	-0,696
2327,001	1,5	-0,002
2331,651	-1	-1,38
2336,301	-5,5	-3,255
2340,95	-8,5	-3,499
2345,6	-1	-1,506
2350,244	1,5	-0,04
2354,9	1	-0,551
2359,549	-3	-2,525
2364,193	-8,5	-3,492
2368,849	-4,5	-2,526
2373,522	0	-0,47
2378,214	1,5	0
2382,87	-1,5	-1,854
2387,52	-7,5	-3,443
2573,011	-1,5	-1,992
2577,661	-8	-3,456
2582,311	-8,5	-3,263
2586,954	-0,5	-1,439
2591,604	1,5	-0,032
2596,254	0,5	-0,586
2600,963	-3,5	-2,818
2713,949	-2,5	-2,321
2718,593	-7,5	-3,491
2723,237	-4,5	-2,654
2727,88	0	-0,71
2732,524	1,5	-0,002
2737,174	-1	-1,509
2741,811	-6	-3,358
2746,461	-7,5	-3,47
2931,617	-2,5	-2,246
2936,26	0	-0,435
2940,904	1,5	-0,001
2945,554	-1	-1,703
2950,204	-5,5	-3,376
2954,847	-7,5	-3,499
2959,491	-1	-1,833
2964,135	1	-0,134
3185,444	-0,5	-1,854
3190,088	1	-0,117
3194,738	1	-0,426
3199,381	-1,5	-2,439
3200,995	1,5	-0,001

File: _3.txt
Time (s)	Load (N)	Displacement (mm)
0	-0,5	-0,026
10,473	0	-0,001
20,913	0	-0,002
31,364	0,5	-0,003
41,822	0,5	-0,004
52,285	0,5	-0,007
62,73	0,5	-0,011
73,194	1	-0,006
83,651	1	-0,007
94,133	1	-0,002
104,578	1	-0,001
115,029	0,5	0
125,481	1	-0,002
135,95	1	-0,003
146,396	1	-0,008
156,847	1	-0,01
167,292	1	-0,016
177,744	1	-0,038
188,189	1	-0,04
198,64	1	-0,066
209,092	0	-0,091
219,537	0	-0,235
229,995	-0,5	-0,396
240,446	-1,5	-0,904
250,898	-2	-1,19
261,343	-3,5	-1,557
271,794	-4,5	-1,913
282,252	-5	-1,948
292,715	-5,5	-2,096
303,173	-6	-2,13
313,636	-6	-2,14
324,093	-8,5	-2,589
334,545	-11	-2,952
344,996	-12,5	-3,404
355,447	-12,5	-3,499
365,917	-12	-3,498
376,38	-12	-3,496
386,826	-12	-3,492
397,283	-12	-3,493
407,753	-12	-3,493
418,216	-12	-3,493
428,691	-12	-3,492
439,155	-12	-3,492
449,612	-12	-3,485
460,064	-11,5	-3,477
470,533	-11,5	-3,462
480,996	-10,5	-3,438
491,448	-10,5	-3,395
501,923	-9	-3,274
512,387	-8	-3,11
522,844	-7	-2,84
533,319	-7	-2,864
543,783	-7,5	-2,912
554,24	-7	-2,845
564,704	-5,5	-2,506
575,161	-4,5	-2,276
585,618	-3,5	-2,023
596,082	-3	-1,816
606,557	-3	-1,686
617,021	-1,5	-1,154
627,472	0	-0,611
637,935	0,5	-0,285
648,411	1,5	-0,032
658,88	1,5	-0,001
669,332	1,5	-0,001
679,783	1	-0,003
690,264	1,5	-0,004
700,728	1,5	-0,006
711,197	1,5	-0,007
721,679	1	-0,015
732,16	0,5	-0,116
742,635	0,5	-0,157
753,111	1	-0,066
763,556	0,5	-0,094
774,014	0	-0,138
784,465	0,5	-0,131
794,928	0	-0,154
805,422	0,5	-0,095
815,879	0	-0,173
826,349	0,5	-0,152
836,83	0,5	-0,136
847,299	0	-0,178
857,781	1	-0,055
868,274	1	-0,034
878,75	1,5	-0,01
889,249	1	-0,002
899,736	1,5	-0,001
910,218	1,5	-0,005
920,723	1,5	-0,097
931,223	1	-0,272
941,716	1	-0,092
952,179	1,5	-0,001
962,637	1,5	-0,001
973,112	1,5	-0,001
983,576	1	-0,148
994,051	1	-0,319
1004,532	1	-0,331
1015,002	1	-0,304
1025,477	1,5	-0,212
1035,941	1	-0,185
1046,404	1	-0,366
1056,879	1	-0,336
1067,349	0,5	-0,436
1077,818	0	-0,552
1088,3	0	-0,718
1098,757	0	-0,688
1109,226	0	-0,629
1119,69	0	-0,528
1130,171	0	-0,61
1140,647	0	-0,574
1151,122	0	-0,571
1161,591	0	-0,691
1172,055	0	-0,634
1182,524	0	-0,665
1192,994	0,5	-0,476
1203,463	0,5	-0,486
1213,944	0,5	-0,454
1224,408	0,5	-0,348
1234,889	1	-0,386
1245,359	1,5	-0,066
1255,828	1,5	-0,001
1266,297	1,5	-0,002
1276,761	1,5	-0,005
1287,212	1,5	-0,008
1297,688	1,5	-0,008
1308,157	1,5	-0,006
1318,62	1,5	-0,005
1329,09	1,5	-0,003
1339,565	1,5	-0,016
1350,035	0,5	-0,428
1360,516	0	-0,737
1370,979	-1	-1,046
1381,461	-1,5	-1,355
1391,948	-1,5	-1,487
1402,406	-1,5	-1,452
1412,863	-1	-1,056
1423,326	-1	-1,132
1433,808	-1	-0,987
1444,271	0	-0,686
1454,723	0	-0,573
1465,186	1,5	-0,11
1475,649	1,5	-0,002
1486,113	1,5	-0,017
1496,576	0,5	-0,074
1507,046	0	-0,266
1517,521	0	-0,255
1527,99	0	-0,196
1538,46	0	-0,222
1548,935	0	-0,268
1559,411	0	-0,609
1569,88	0	-0,641
1580,356	0	-0,55
1590,819	0	-0,454
1601,282	0	-0,452
1611,752	0	-0,341
1622,209	0,5	-0,09
1632,678	1	-0,041
1643,154	1	-0,01
1653,641	1,5	-0,002
1664,123	1,5	-0,262
1674,592	0	-0,699
1685,075	-1,5	-1,331
1695,543	-1,5	-1,548
1706,018	-3	-2,099
1716,488	-4,5	-2,661
1726,945	-4,5	-2,516
1737,421	-5,5	-2,916
1747,884	-6,5	-3,061
1758,353	-4,5	-2,629
1768,829	-5,5	-2,833
1779,298	-7	-3,254
1789,774	-9	-3,435
1800,249	-9,5	-3,48
1810,73	-9,5	-3,485
1821,2	-9,5	-3,491
1831,669	-9,5	-3,494
1842,145	-10	-3,498
1852,614	-10	-3,486
1863,077	-8,5	-2,994
1873,553	-5,5	-2,444
1884,04	-3	-1,69
1894,51	-1	-1,149
1904,979	-0,5	-0,874
1915,454	0	-0,579
1925,918	0	-0,456
1936,387	0	-0,251
1946,845	0,5	-0,114
1957,326	1	-0,042
1967,789	1,5	-0,02
1978,265	1,5	-0,005
1988,74	1,5	-0,001
1999,21	1,5	-0,055
2009,679	0,5	-0,507
2020,16	0	-0,758
2030,624	-1	-1,073
2041,099	-1,5	-1,405
2051,587	-2	-1,573
2062,05	-2,5	-1,841
2072,519	-2	-1,882
2082,983	-3	-2,101
2093,458	-3	-2,358
2103,922	-4,5	-2,62
2114,391	-5	-2,92
2124,854	-5,5	-3,049
2135,318	-6,5	-3,262
2145,781	-8,5	-3,443
2156,245	-9	-3,483
2166,714	-9	-3,486
2177,177	-9	-3,493
2187,635	-9	-3,489
2198,104	-9	-3,487
2208,574	-8,5	-3,49
2219,037	-9	-3,495
2229,518	-8,5	-3,497
2239,982	-9	-3,497
2250,445	-9	-3,495
2260,921	-9	-3,497
2271,378	-9	-3,497
2281,835	-8,5	-3,497
2292,293	-9	-3,497
2302,756	-9	-3,496
2313,226	-9	-3,496
2323,695	-9	-3,496
2334,164	-8,5	-3,499
2344,622	-8,5	-3,171
2355,079	-6	-2,72
2365,549	-4	-2,386
2376,024	-2,5	-1,9
2386,487	-1	-1,533
2396,945	-0,5	-1,18
2407,414	0	-0,776
2417,872	0	-0,498
2428,323	0	-0,477
2438,786	0,5	-0,178
2449,25	0,5	-0,074
2459,725	1,5	-0,015
2470,195	1,5	-0,003
2480,67	1,5	-0,121
2491,133	1,5	-0,396
2501,609	-0,5	-0,841
2512,084	-1	-1,337
2522,542	-1,5	-1,649
2533,005	-2	-2,043
2543,486	-3	-2,442
2553,95	-3	-2,634
2564,419	-4	-2,836
2574,883	-4	-2,857
2585,352	-4,5	-3,01
2595,815	-5	-3,059
2606,285	-5,5	-3,276
2616,748	-6,5	-3,426
2627,206	-7	-3,482
2637,675	-7,5	-3,496
2648,138	-7,5	-3,496
2658,614	-5	-2,879
2669,089	-2,5	-2,28
2679,559	-1,5	-1,696
2690,016	-0,5	-1,163
2700,485	0	-0,643
2710,949	1	-0,14
2721,418	1	-0,058
2731,894	1,5	-0,017
2742,357	1,5	-0,006
2752,809	1,5	-0,002
2763,284	1	-0,027
2773,741	1,5	-0,196
2784,217	0	-0,666
2794,68	-0,5	-1,177
2805,138	-1,5	-1,566
2815,595	-1,5	-1,9
2826,064	-2	-2,281
2836,516	-2,5	-2,397
2846,991	-3	-2,841
2857,449	-4	-3,157
2867,912	-5,5	-3,384
2878,363	-5,5	-3,44
2888,839	-5,5	-3,433
2899,332	-6	-3,443
2909,796	-5,5	-3,425
2920,265	-5,5	-3,439
2930,723	-5,5	-3,454
2941,198	-5,5	-3,469
2951,673	-5,5	-3,479
2962,137	-5,5	-3,492
2972,594	-5,5	-3,495
2983,069	-5,5	-3,496
2993,551	-5,5	-3,498
3004,026	-5,5	-3,499
3014,484	-5,5	-3,499
3024,953	-5,5	-3,498
3035,419	-5,5	-3,497
3045,886	-5	-3,255
3056,361	-4,5	-3,091
3066,819	-5	-3,449
3077,276	-5	-3,5
3087,751	-5	-3,499
3098,203	-5	-3,496
3108,678	-5	-3,494
3119,148	-5	-3,486
3129,617	-4,5	-3,47
3135,131	1,5	-0,001

File: _4.txt
Time (s)	Load (N)	Displacement (mm)
36,123	-2,5	-0,921
45,087	-12	-3,321
54,062	-9	-2,441
63,033	0	-0,243
72,013	0,5	-0,232
80,983	-7	-2,412
89,94	-13,5	-3,497
98,916	-6	-1,946
107,885	0,5	-0,044
116,843	0	-0,467
125,812	-8	-2,84
134,77	-13	-3,5
143,751	-2	-0,983
152,715	1	-0,002
161,691	-3,5	-1,722
170,654	-12,5	-3,469
179,635	-7,5	-2,34
260,84	1	-0,002
269,822	-5	-2,23
278,797	-12	-3,498
287,773	-2	-1,262
296,754	1	-0,002
305,742	-3	-1,75
314,735	-12	-3,488
323,729	-4,5	-1,855
332,722	0,5	-0,026
341,704	-2,5	-1,438
350,691	-11,5	-3,464
359,673	-7	-2,399
368,672	1	-0,03
377,654	-1,5	-0,98
386,641	-9,5	-3,266
395,629	-9	-2,747
476,924	1	-0,008
485,912	-3	-1,766
494,899	-11,5	-3,495
503,899	-2	-1,29
512,898	1	-0,001
521,891	-6,5	-2,852
530,873	-10	-2,98
539,854	0	-0,183
548,872	-0,5	-0,639
557,865	-7	-2,95
566,853	-11,5	-3,461
575,84	-0,5	-0,612
584,846	1	-0,146
593,839	-5,5	-2,639
602,833	-11,5	-3,499
611,82	-1,5	-1,249
620,808	1	-0,001
629,807	-4,5	-2,284
638,801	-11,5	-3,499
647,788	-1,5	-1,085
765,286	-11	-3,499
774,279	-1	-0,844
783,267	0,5	-0,13
792,26	-6,5	-2,935
801,224	-10,5	-3,11
810,223	0	-0,486
819,217	0,5	-0,309
828,21	-6,5	-3,041
837,215	-8	-2,755
846,227	0	-0,102
855,226	-1,5	-1,101
864,202	-10	-3,43
873,195	-4,5	-2,079
882,189	0,5	-0,009
891,188	-3,5	-2,026
900,182	-10,5	-3,499
909,175	-1,5	-1,195
918,145	1	-0,001
927,132	-5,5	-2,74
936,132	-9	-2,985
945,125	0	-0,16
954,113	-1,5	-1,086
963,106	-10,5	-3,473
972,1	-3	-1,794
981,087	1	-0,003
990,081	-4	-2,33
999,074	-10,5	-3,482
1008,056	-0,5	-0,68
1125,493	0	-0,159
1134,468	-0,5	-0,766
1143,444	-8,5	-3,365
1152,437	-5,5	-2,39
1161,419	0,5	-0,06
1170,412	-1,5	-1,194
1179,388	-10	-3,462
1188,375	-3	-1,894
1197,369	1	-0,006
1206,35	-2,5	-1,799
1215,338	-10	-3,496
1224,313	-1	-1,202
1233,307	1	-0,001
1242,288	-5	-2,579
1251,27	-10	-3,224
1260,245	0	-0,555
1269,245	1	-0,232
1278,232	-5,5	-2,872
1287,22	-9,5	-3,035
1296,201	0	-0,276
1305,183	0	-0,776
1314,17	-8,5	-3,397
1323,152	-5	-2,323
1332,145	0,5	-0,036
1341,145	-1,5	-1,204
1350,12	-10	-3,467
1359,096	-4,5	-2,172
1368,083	1	-0,017
1377,059	-2	-1,462
1386,059	-10	-3,494
1395,04	-2	-1,484
1404,027	1,5	-0,002
1413,015	-4	-2,414
1422,008	-10	-3,413
1431,002	0	-0,488
1439,977	0,5	-0,403
1448,965	-7	-3,158
1457,94	-6	-2,618
1466,934	1	-0,05
1475,915	-1,5	-1,412
1484,896	-10	-3,488
1493,884	-1,5	-1,468
1502,859	1	-0,002
1511,841	-4	-2,404
1520,834	-10	-3,419
1529,834	0	-0,474
1538,815	0	-0,433
1547,809	-7,5	-3,185
1556,79	-6,5	-2,731
1565,784	1	-0,055
1574,765	-1,5	-1,225
1583,735	-9,5	-3,46
1592,716	-3,5	-2,123
1601,71	1,5	-0,01
1610,697	-2,5	-1,746
1619,691	-9,5	-3,497
1628,678	-1,5	-1,276
1637,666	1	-0,002
1646,659	-3	-2,263
1655,653	-9,5	-3,5
1664,634	-0,5	-0,778
1673,616	1,5	0
1682,609	-5,5	-2,997
1691,591	-8	-2,854
1700,578	0	-0,18
1709,56	0	-0,646
1718,541	-8,5	-3,395
1727,517	-5,5	-2,583
1736,492	0,5	-0,089
1745,48	-1	-0,963
1754,455	-9	-3,449
1763,449	-3	-1,938
1772,43	1	-0,01
1781,412	-2	-1,788
1790,387	-10	-3,496
1799,374	-2	-1,448
1808,368	1	-0,003
1817,355	-3	-2,146
1826,343	-9,5	-3,499
1835,336	-0,5	-0,978
1844,318	1	-0,108
1853,299	-5,5	-2,951
1862,287	-8,5	-2,952
1871,286	0	-0,182
1880,28	-0,5	-0,759
1889,261	-8	-3,406
1898,243	-5,5	-2,364
1907,224	0,5	-0,054
1916,206	-1,5	-1,192
1925,181	-9	-3,456
1934,169	-3,5	-2,123
1943,15	1	-0,02
1952,138	-1,5	-1,57
1961,119	-9,5	-3,492
1970,113	-1	-1,27
1979,1	1	-0,001
1988,088	-4	-2,474
1997,069	-9,5	-3,499
2006,039	-0,5	-0,752
2015,002	0,5	-0,269
2023,978	-7	-3,157
2032,965	-6	-2,702
2041,953	0,5	-0,082
2050,94	-0,5	-0,738
2059,916	-7	-3,166
2068,909	-6	-2,628
2077,903	0	-0,159
2086,878	-0,5	-0,699
2095,854	-8	-3,364
2104,847	-4	-2,228
2113,841	1	-0,023
2122,822	-1,5	-1,424
2131,804	-9,5	-3,489
2140,785	-2	-1,592
2149,766	1	-0,003
2158,754	-3	-2,291
2167,736	-9,5	-3,466
2176,729	0	-0,473
2185,71	0	-0,64
2194,686	-6,5	-3,294
2203,673	-5,5	-2,498
2212,655	1	-0,037
2221,642	-1	-1,131
2230,63	-9	-3,48
2239,617	-2	-1,653
2248,587	1	-0,003
2257,568	-2,5	-1,966
2266,55	-9	-3,498
2275,519	-1,5	-1,345
2284,495	1	-0,002
2293,476	-3,5	-2,4
2302,452	-9,5	-3,499
2311,433	0	-0,578
2320,409	0,5	-0,378
2329,396	-6	-3,216
2338,39	-7	-2,825
2347,365	0	-0,18
2356,341	-0,5	-0,772
2365,31	-7	-3,344
2374,298	-5	-2,498
2383,273	0,5	-0,065
2392,261	-1	-1,105
2401,242	-8,5	-3,463
2410,236	-3	-2,128
2419,223	1	-0,027
2428,193	-1,5	-1,312
2437,162	-8,5	-3,473
2446,168	-2,5	-1,818
2455,155	1	-0,004
2464,137	-2	-1,884
2473,124	-8,5	-3,496
2482,093	-1	-1,36
2491,075	1	-0,002
2500,056	-3	-2,223
2509,032	-8,5	-3,498
2518,019	-0,5	-1,054
2526,995	1	-0,001
2535,964	-3,5	-2,506
2544,946	-8	-3,5
2553,921	0	-0,784
2562,897	1	-0,184
2571,89	-5	-2,982
2580,878	-7	-3,005
2589,865	0	-0,315
2598,847	0,5	-0,362
2643,946	-7,5	-3,492
2652,94	-1	-1,519
2661,921	1	-0,002
2670,903	-2,5	-2,085
2679,896	-7,5	-3,499
2688,884	-0,5	-0,965
2697,853	1	0
2706,835	-4	-2,734
2715,816	-7,5	-3,206
2724,798	0	-0,538
2733,785	0,5	-0,481
2742,767	-5	-3,211
2751,748	-4,5	-2,533
2760,742	1	-0,036
2769,717	-1	-1,11
2778,711	-7,5	-3,486
2787,686	-2	-1,989
2796,68	1	-0,012
2805,661	-1,5	-1,57
2814,643	-7,5	-3,488
2859,76	0	-0,338
2868,741	0	-0,606
2877,711	-5	-3,257
2886,686	-5,5	-2,899
2895,662	0	-0,236
2904,637	0	-0,65
2913,625	-6	-3,377
2922,6	-3,5	-2,424
2931,588	1	-0,033
2940,575	-1	-1,472
2949,557	-7	-3,487
2958,544	-1	-1,535
2967,526	1	-0,002
2976,507	-3	-2,494
2985,495	-7	-3,225
2994,488	0	-0,434
3003,464	0	-0,698
3012,463	-6	-3,438
3021,439	-2	-2,029
3030,426	1	-0,006
3039,402	-1,5	-1,824
3048,371	-7	-3,496
3057,365	-0,5	-1,268
3066,346	1	-0,001
3075,328	-2,5	-2,42
3084,309	-7	-3,5
3093,303	0	-0,812
3102,284	1	-0,273
3111,272	-4,5	-3,155
3120,259	-4	-2,648
3129,246	0,5	-0,071
3138,234	-1	-1,38
3147,203	-7	-3,486
3156,191	-1	-1,654
3163,169	1	-0,001