Folder: Data-filter--cyclical-tests-BEPE-project-/ensaios_Ciclicos/_40perc/_3gap/entrada

Note: README.md
# Data filter (cyclical tests BEPE project)
python aplication to treat data get by fatigue testing machine

File: _2.txt
Time (s)	Load (N)	Displacement (mm)
0	0	-0,036
10,559	1	-0,055
21,022	1	-0,002
31,503	1	-0,013
41,973	0	-0,126
52,442	-2	-0,65
62,93	-6,5	-1,417
73,411	-9,5	-1,788
83,886	-14,5	-2,457
94,38	-21	-3,283
104,849	-21	-3,499
115,337	-21	-3,493
125,824	-18,5	-3,391
136,323	-12	-2,71
146,836	-8,5	-2,205
157,316	-5,5	-1,665
167,822	-3,5	-1,212
178,297	0	-0,622
188,808	1,5	-0,32
199,32	2	-0,001
209,813	2	-0,004
220,301	2	-0,009
230,83	2	-0,009
241,347	2	-0,013
251,865	1,5	-0,022
262,394	1,5	-0,048
272,9	1	-0,089
283,398	1,5	-0,082
293,928	1,5	-0,072
304,434	0	-0,174
314,951	0	-0,366
325,451	-0,5	-0,578
335,986	-0,5	-0,553
346,509	-1,5	-0,864
357,027	-2,5	-0,997
367,568	-2	-0,967
378,074	-3	-1,164
388,597	-6,5	-1,754
399,102	-16	-2,883
409,596	-18,5	-3,498
420,137	-18	-3,496
430,649	-17,5	-3,463
441,178	-17,5	-3,45
451,689	-14,5	-3,328
462,201	-15	-3,359
472,718	-16,5	-3,421
483,224	-15	-3,342
493,747	-13,5	-3,261
504,264	-13	-3,214
514,794	-13,5	-3,207
525,305	-15	-3,382
535,853	-17	-3,449
546,376	-16,5	-3,444
556,881	-17	-3,473
567,411	-17,5	-3,491
577,934	-17,5	-3,495
588,452	-17,5	-3,493
598,945	-17,5	-3,49
609,45	-17	-3,476
619,98	-17	-3,472
630,491	-17	-3,481
641,002	-17	-3,477
651,55	-17	-3,464
662,079	-17	-3,474
672,609	-17	-3,484
683,138	-17	-3,475
693,661	-15,5	-3,46
704,167	-15	-3,429
714,684	-13,5	-3,426
725,208	-16	-3,448
735,713	-16,5	-3,474
746,224	-17	-3,489
756,736	-17	-3,496
767,253	-17	-3,497
777,777	-16,5	-3,5
788,294	-14,5	-3,029
798,805	-13,5	-2,83
809,329	-10,5	-2,46
819,834	-7	-2,068
830,358	-5,5	-1,875
840,869	-6	-1,874
851,386	-7	-2,003
861,904	-4,5	-1,673
872,409	-3	-1,383
882,915	-2,5	-1,193
893,42	-1	-0,844
903,937	0	-0,307
914,449	1,5	-0,078
924,96	2	-0,029
935,46	2,5	-0,01
945,965	2	-0,004
956,464	2	-0,002
966,976	2	0
977,487	1,5	-0,346
987,993	0	-0,723
998,492	-0,5	-0,818
1009,003	0	-0,692
1019,503	0	-0,692
1030,026	-2,5	-1,376
1040,532	-4,5	-2,027
1051,043	-6	-2,417
1061,536	-9	-2,812
1072,054	-8	-2,764
1082,559	-7,5	-2,607
1093,065	-6	-2,329
1103,57	-5	-2,126
1114,069	-4	-1,987
1124,575	-3,5	-1,678
1135,098	-4	-1,856
1145,61	-3,5	-1,746
1156,121	-4,5	-1,93
1166,626	-5,5	-2,266
1177,126	-5,5	-2,39
1187,637	-9	-2,8
1198,155	-14	-3,394
1208,66	-15	-3,48
1219,171	-16	-3,498
1229,683	-15,5	-3,222
1240,17	-10,5	-2,689
1250,664	-7,5	-2,199
1261,175	-5	-1,863
1271,68	-3	-1,418
1282,192	-1,5	-1,028
1292,685	-0,5	-0,616
1303,191	0,5	-0,159
1313,696	1,5	-0,046
1324,201	2,5	-0,021
1334,719	2,5	-0,009
1345,218	2,5	-0,016
1355,73	2,5	-0,005
1366,235	2,5	-0,008
1376,74	2,5	-0,016
1387,246	2,5	-0,016
1397,745	2,5	-0,004
1408,257	2,5	-0,002
1418,768	2,5	-0,001
1429,273	2,5	0
1439,779	2,5	-0,032
1450,296	2	-0,298
1460,784	2	-0,376
1471,283	0,5	-0,6
1481,782	0	-0,776
1492,288	-1	-0,998
1502,793	-2	-1,161
1513,305	-2	-1,31
1523,81	-3	-1,649
1534,303	-3,5	-1,82
1544,797	-4	-1,993
1555,314	-5,5	-2,348
1565,82	-7,5	-2,755
1576,325	-9,5	-3,003
1586,825	-13,5	-3,384
1597,324	-15	-3,451
1607,829	-15	-3,479
1618,329	-15	-3,486
1628,84	-15	-3,494
1639,351	-15	-3,496
1649,857	-15	-3,498
1660,35	-15	-3,498
1670,862	-15	-3,499
1681,349	-15	-3,499
1691,854	-15	-3,5
1702,36	-15	-3,319
1712,865	-14,5	-3,188
1723,359	-15	-3,262
1733,87	-15	-3,498
1744,369	-15	-3,496
1754,875	-15	-3,488
1765,386	-14,5	-3,466
1775,886	-11	-3,288
1786,391	-10	-3,181
1796,896	-10	-3,157
1807,402	-10	-3,171
1817,913	-7,5	-2,732
1828,413	-5,5	-2,45
1838,912	-4,5	-2,237
1849,411	-3,5	-2,046
1859,917	-3,5	-1,964
1870,41	-4	-2,046
1880,892	-4	-2,137
1891,397	-4,5	-2,241
1901,89	-5,5	-2,501
1912,396	-5,5	-2,506
1922,889	-5	-2,3
1933,389	-3,5	-1,954
1943,888	-3	-1,811
1954,387	-2	-1,386
1964,887	-2,5	-1,578
1975,392	-3	-1,869
1985,898	-6	-2,6
1996,397	-8,5	-2,94
2006,914	-9,5	-3,17
2017,414	-6,5	-2,743
2027,925	-6	-2,58
2038,425	-4,5	-2,298
2048,924	-5,5	-2,51
2059,423	-3,5	-1,979
2069,923	-3	-1,707
2080,428	-2	-1,436
2090,922	-1,5	-1,207
2101,415	-1	-0,933
2111,914	-1	-0,854
2122,408	0	-0,797
2132,907	-0,5	-0,83
2143,413	-1	-0,917
2153,918	-1,5	-1,17
2164,399	-1,5	-1,155
2174,893	-1,5	-1,338
2185,398	-2,5	-1,597
2195,904	-3	-1,897
2206,409	-5	-2,386
2216,902	-7,5	-2,945
2227,408	-10,5	-3,292
2237,925	-12	-3,392
2248,419	-12	-3,398
2258,924	-12,5	-3,431
2269,429	-12,5	-3,433
2279,923	-13	-3,448
2290,422	-13,5	-3,492
2300,928	-14	-3,496
2311,427	-13,5	-3,499
2321,926	-13,5	-3,198
2332,414	-10	-2,779
2342,913	-5,5	-2,235
2353,413	-3	-1,763
2363,918	-1,5	-1,291
2374,423	-1	-1,043
2384,917	-0,5	-0,909
2395,416	-0,5	-0,861
2405,91	-1	-1,008
2416,403	-1	-1,128
2426,908	-1	-1,114
2437,414	-1	-1,148
2447,931	-0,5	-0,963
2458,425	-0,5	-0,87
2468,93	0	-0,729
2479,417	0	-0,539
2489,917	0,5	-0,4
2500,422	0,5	-0,237
2510,922	0	-0,375
2521,421	0	-0,276
2531,908	0	-0,495
2542,426	0	-0,399
2552,925	0	-0,51
2563,419	0	-0,509
2573,918	0	-0,488
2584,417	-0,5	-1,009
2594,917	-1,5	-1,444
2605,404	-3	-2,052
2615,91	-3,5	-2,091
2626,409	-4	-2,214
2636,914	-5,5	-2,459
2647,414	-6,5	-2,667
2657,919	-6	-2,685
2668,425	-8	-2,964
2678,924	-10,5	-3,5
2689,429	-10	-3,493
2699,935	-9	-3,462
2710,44	-9	-3,449
2720,94	-8,5	-3,412
2731,427	-6	-3,218
2741,938	-4,5	-2,806
2752,432	-3	-2,249
2762,943	-2,5	-2,176
2773,437	-2,5	-1,987
2783,936	-2	-1,885
2794,429	-1,5	-1,521
2804,935	0	-0,971
2815,428	1,5	-0,511
2825,922	2,5	-0,132
2836,433	2,5	-0,001
2846,932	2,5	-0,005
2857,432	2,5	-0,007
2867,925	2,5	-0,014
2878,431	2	-0,058
2888,936	1	-0,111
2899,429	1	-0,211
2909,935	0	-0,43
2920,434	0	-0,526
2930,934	0	-0,659
2941,433	0	-0,494
2951,932	0	-0,606
2962,426	0	-0,663
2972,937	0	-0,704
2983,443	0	-0,574
2993,948	0	-0,495
3004,441	1	-0,192
3014,941	2	-0,043
3025,44	2	-0,009
3035,94	2,5	-0,003
3046,433	2,5	-0,001
3056,932	2	-0,147
3067,432	1,5	-0,422
3077,949	-0,5	-0,907
3088,449	-0,5	-1,041
3098,942	-0,5	-1,23
3109,441	-1	-1,441
3119,959	-1,5	-1,808
3130,452	-1,5	-1,937
3140,952	-2	-2,058
3150,947	2,5	-0,001

File: _3.txt
Time (s)	Load (N)	Displacement (mm)
0	0	-0,036
10,601	1	-0,223
21,094	1	-0,005
31,594	1	-0,034
42,081	-0,5	-0,31
52,568	-4	-0,994
63,08	-5,5	-1,348
73,579	-7,5	-1,614
84,097	-9	-1,838
94,614	-12	-2,162
105,114	-19	-3,077
115,631	-20	-3,5
126,148	-19,5	-3,497
136,672	-19,5	-3,495
147,195	-19,5	-3,496
157,707	-19,5	-3,49
168,242	-19	-3,466
178,771	-16,5	-3,347
189,295	-14	-3,076
199,824	-10,5	-2,725
210,347	-8,5	-2,425
220,865	-8	-2,288
231,424	-7	-2,167
241,96	-5,5	-1,964
252,501	-7	-2,243
263,042	-7	-2,256
273,572	-9	-2,587
284,125	-13	-3,076
294,679	-15	-3,32
305,214	-16,5	-3,418
315,749	-14	-3,268
326,273	-14,5	-3,318
336,82	-16	-3,436
347,362	-17,5	-3,464
357,909	-17,5	-3,487
368,45	-17,5	-3,495
378,992	-17,5	-3,498
389,539	-17,5	-3,5
400,092	-17,5	-3,192
410,652	-13,5	-2,71
421,205	-10	-2,313
431,747	-7	-1,927
442,294	-4,5	-1,539
452,836	-2,5	-1,147
463,377	-0,5	-0,661
473,912	0	-0,38
484,46	1	-0,112
495,007	1	-0,087
505,561	1	-0,148
516,126	1,5	-0,065
526,679	2	-0,037
537,233	2	-0,014
547,78	2	-0,011
558,334	2	-0,01
568,875	2	-0,009
579,434	2,5	-0,006
589,982	2,5	-0,003
600,523	2,5	-0,002
611,088	2	-0,216
621,642	0,5	-0,59
632,189	-1,5	-0,962
642,731	-2	-1,076
653,272	-3	-1,399
663,825	-4	-1,7
674,373	-4,5	-1,918
684,92	-4,5	-1,909
695,468	-5	-2,011
706,015	-4,5	-1,916
716,562	-3	-1,444
727,104	-4	-1,876
737,675	-6	-2,427
748,217	-9	-2,809
758,77	-12	-3,252
769,3	-15	-3,46
779,859	-16	-3,482
790,406	-15	-3,452
800,93	-13	-3,369
811,471	-14	-3,374
822,012	-15	-3,45
832,548	-14	-3,405
843,095	-14,5	-3,41
853,631	-14,5	-3,409
864,178	-15	-3,464
874,713	-13,5	-3,379
885,255	-10,5	-3,092
895,784	-7,5	-2,647
906,32	-4	-1,896
916,855	-0,5	-0,774
927,39	1	-0,533
937,926	2	-0,248
948,479	2	-0,048
959,015	2	-0,001
969,55	2,5	-0,006
980,091	2	-0,02
990,633	2	-0,024
1001,186	2,5	-0,008
1011,728	2,5	-0,009
1022,263	2	-0,014
1032,798	2	-0,019
1043,34	2,5	-0,018
1053,881	2,5	-0,012
1064,429	2	-0,018
1074,976	2,5	-0,013
1085,505	2	-0,017
1096,041	2,5	-0,025
1106,582	2,5	-0,014
1117,106	2,5	-0,005
1127,653	2,5	-0,001
1138,182	2,5	0
1148,712	2,5	0
1159,247	2,5	-0,003
1169,771	2	-0,01
1180,288	2,5	-0,002
1190,805	2	0
1201,335	2	-0,137
1211,864	2	-0,298
1222,4	-0,5	-0,831
1232,929	-2	-1,363
1243,452	-3	-1,797
1253,982	-4	-2,085
1264,511	-6,5	-2,607
1275,047	-10,5	-3,212
1285,576	-14	-3,449
1296,111	-15	-3,494
1306,635	-15	-3,432
1317,17	-14	-3,007
1327,706	-10	-2,603
1338,229	-7,5	-2,324
1348,752	-4,5	-1,752
1359,276	-2,5	-1,265
1369,799	-1	-0,928
1380,335	0	-0,374
1390,858	1,5	-0,103
1401,387	2	-0,031
1411,917	3	-0,006
1422,434	2,5	-0,003
1432,958	2,5	0
1443,493	1	-0,49
1454,016	-0,5	-0,822
1464,546	-1	-1,057
1475,075	-1,5	-1,196
1485,599	-1,5	-1,274
1496,128	-2	-1,392
1506,646	-2,5	-1,657
1517,175	-2,5	-1,664
1527,71	-3	-1,806
1538,228	-3	-1,717
1548,739	-2,5	-1,65
1559,268	-3,5	-1,819
1569,792	-3	-1,821
1580,315	-4,5	-2,208
1590,826	-5,5	-2,411
1601,344	-9	-2,965
1611,867	-10	-3,111
1622,397	-10,5	-3,24
1632,926	-12	-3,341
1643,45	-11,5	-3,364
1653,979	-13,5	-3,424
1664,508	-13	-3,396
1675,032	-13	-3,4
1685,549	-11	-3,308
1696,079	-9,5	-3,059
1706,596	-7,5	-2,748
1717,119	-4,5	-2,237
1727,649	-1,5	-1,265
1738,178	2	-0,457
1748,702	2,5	-0,294
1759,225	2,5	-0,004
1769,754	2,5	-0,018
1780,284	2,5	-0,028
1790,807	2,5	-0,031
1801,342	1	-0,136
1811,866	0	-0,561
1822,389	-0,5	-0,685
1832,919	-1	-1,009
1843,436	-2	-1,27
1853,965	-2	-1,411
1864,495	-2,5	-1,427
1875,018	-1,5	-1,062
1885,542	-1	-0,99
1896,071	0	-0,408
1906,6	0,5	-0,192
1917,124	0	-0,427
1927,653	0	-0,384
1938,183	0	-0,749
1948,706	-0,5	-0,784
1959,235	-0,5	-0,948
1969,759	-0,5	-0,986
1980,282	-0,5	-0,932
1990,806	-1	-1,183
2001,335	-1,5	-1,221
2011,871	-1,5	-1,209
2022,4	-1,5	-1,254
2032,917	-2	-1,384
2043,435	-1,5	-1,288
2053,958	-3	-1,71
2064,487	-2,5	-1,491
2075,005	-3,5	-1,753
2085,522	-5,5	-2,215
2096,052	-9	-2,724
2106,575	-10,5	-2,87
2117,098	-13,5	-3,466
2127,616	-13,5	-3,499
2138,139	-13,5	-3,494
2148,663	-13,5	-3,49
2159,192	-13	-3,477
2169,709	-12,5	-3,439
2180,227	-12	-3,4
2190,732	-11	-3,361
2201,256	-12,5	-3,445
2211,791	-11,5	-3,388
2222,32	-8,5	-3,144
2232,844	-7,5	-2,925
2243,373	-6,5	-2,887
2253,891	-7	-2,956
2264,408	-6	-2,716
2274,919	-3,5	-2,234
2285,443	-3	-2,02
2295,96	-2	-1,615
2306,478	-1,5	-1,471
2317,001	-2	-1,676
2327,536	-2	-1,729
2338,06	-1,5	-1,439
2348,583	-1,5	-1,469
2359,107	-1,5	-1,44
2369,63	-1,5	-1,432
2380,153	-1,5	-1,51
2390,677	-2	-1,598
2401,206	-2,5	-1,844
2411,73	-3	-2,127
2422,253	-3,5	-2,29
2432,776	-4,5	-2,544
2443,3	-4	-2,441
2453,829	-4,5	-2,596
2464,347	-5,5	-2,872
2474,864	-6	-3,005
2485,387	-6,5	-3,029
2495,917	-5	-2,774
2506,434	-4	-2,508
2516,952	-3,5	-2,253
2527,469	-2,5	-1,992
2537,992	-1,5	-1,634
2548,516	-1	-1,36
2559,039	-1	-1,166
2569,569	-0,5	-0,901
2580,092	0	-0,931
2590,603	-1	-0,986
2601,133	1	-0,598
2611,656	1,5	-0,526
2622,18	0	-0,674
2632,703	0	-0,778
2643,226	1	-0,579
2653,756	0	-0,787
2664,273	1,5	-0,511
2674,803	0,5	-0,596
2685,326	1,5	-0,52
2695,843	1	-0,567
2706,367	0,5	-0,57
2716,884	2	-0,334
2727,408	2,5	-0,153
2737,937	2,5	-0,001
2748,454	2,5	-0,003
2758,978	2,5	-0,003
2769,507	2,5	-0,004
2780,019	2,5	-0,007
2790,53	2,5	-0,017
2801,047	2	-0,045
2811,571	1,5	-0,082
2822,088	1,5	-0,086
2832,612	1,5	-0,087
2843,135	0,5	-0,407
2853,652	-0,5	-1,035
2864,182	0	-1,103
2874,705	-0,5	-1,339
2885,223	-0,5	-1,306
2895,74	0	-1,297
2906,269	0	-1,041
2916,793	0	-0,767
2927,316	0	-0,785
2937,84	1	-0,368
2948,363	1,5	-0,116
2958,898	2	-0,04
2969,416	2,5	-0,014
2979,939	2,5	-0,003
2990,463	2,5	-0,065
3000,98	1	-0,529
3011,509	-0,5	-1,201
3022,033	-1	-1,492
3032,556	-2	-2,047
3043,08	-2,5	-2,411
3053,603	-3	-2,776
3064,126	-3,5	-2,859
3074,638	-5	-3,262
3085,161	-6	-3,378
3095,685	-7,5	-3,469
3106,202	-7,5	-3,48
3116,725	-7,5	-3,486
3127,243	-7,5	-3,485
3137,766	-8	-3,495
3148,29	-7,5	-3,499
3157,679	2,5	0

File: _4.txt
Time (s)	Load (N)	Displacement (mm)
0	0	-0,036
10,648	0,5	-0,137
21,177	1	-0,001
31,689	1,5	-0,003
42,206	1,5	-0,01
52,73	1	-0,054
63,271	-0,5	-0,3
73,812	-1,5	-0,594
84,342	-4	-1,114
94,877	-8,5	-1,7
105,43	-10	-1,999
115,96	-11	-2,194
126,495	-13	-2,364
137,031	-13,5	-2,429
147,554	-14,5	-2,585
158,113	-14,5	-2,574
168,655	-14	-2,543
179,202	-14	-2,623
189,756	-13,5	-2,613
200,309	-13,5	-2,513
210,856	-13	-2,56
221,416	-13	-2,537
232	-12	-2,34
242,565	-12	-2,393
253,136	-10	-2,176
263,689	-9,5	-2,168
274,237	-10,5	-2,294
284,802	-10,5	-2,294
295,374	-10	-2,252
305,951	-9,5	-2,208
316,504	-10,5	-2,273
327,076	-10	-2,238
337,653	-9,5	-2,219
348,255	-7,5	-1,976
358,832	-7,5	-1,941
369,391	-8	-2,034
379,969	-7,5	-1,948
390,534	-7,5	-1,995
401,1	-7,5	-1,948
411,689	-7,5	-1,986
422,254	-9	-2,151
432,826	-10,5	-2,499
443,403	-12	-2,624
453,957	-14	-2,806
464,534	-14,5	-2,883
475,093	-15	-2,95
485,653	-15,5	-3,002
496,212	-14	-2,865
506,772	-12,5	-2,678
517,343	-11,5	-2,578
527,896	-11	-2,595
538,474	-10,5	-2,508
549,045	-11	-2,569
559,617	-11	-2,624
570,188	-12	-2,634
580,759	-9	-2,334
591,331	-8	-2,154
601,908	-7	-2,042
612,473	-6,5	-1,934
623,057	-5	-1,653
633,628	-3,5	-1,51
644,206	-3	-1,344
654,771	-2,5	-1,2
665,324	-1,5	-0,951
675,89	0	-0,563
686,437	-0,5	-0,471
696,997	0	-0,37
707,556	0	-0,223
718,115	1,5	-0,092
728,687	2	-0,058
739,252	2	-0,044
749,824	2	-0,028
760,389	2,5	-0,017
770,966	2,5	-0,008
781,544	2,5	-0,006
792,097	2,5	-0,006
802,651	2,5	-0,006
813,228	2,5	-0,004
823,793	2	-0,002
834,365	2,5	-0,002
844,93	2,5	-0,001
855,496	2,5	0
866,067	2,5	-0,19
876,626	1,5	-0,388
887,198	0	-0,616
897,751	-1	-0,87
908,323	-1	-0,947
918,888	-2	-1,171
929,459	-3	-1,642
940,031	-4,5	-1,981
950,608	-6	-2,388
961,168	-8,5	-2,767
971,739	-10,5	-3,121
982,292	-13,5	-3,378
992,864	-14	-3,393
1003,429	-13,5	-3,391
1013,983	-13	-3,348
1024,548	-12,5	-3,324
1035,125	-12,5	-3,29
1045,679	-11,5	-3,25
1056,232	-9,5	-2,948
1066,798	-9	-2,901
1077,357	-9	-2,919
1087,928	-8	-2,796
1098,488	-6	-2,564
1109,053	-5,5	-2,458
1119,625	-5,5	-2,324
1130,19	-4	-2,063
1140,743	-3,5	-1,863
1151,303	-3,5	-1,787
1161,868	-3	-1,596
1172,421	-2	-1,308
1182,975	-2	-1,318
1193,534	-2	-1,224
1204,1	-1,5	-1,091
1214,665	-0,5	-0,895
1225,218	0	-0,623
1235,784	1,5	-0,431
1246,343	1,5	-0,407
1256,909	0,5	-0,546
1267,456	-0,5	-0,87
1278,027	-1	-0,848
1288,581	-1	-1,097
1299,14	-2	-1,259
1309,694	-1,5	-1,268
1320,265	-1,5	-1,252
1330,837	-2	-1,484
1341,396	-3	-1,667
1351,949	-2,5	-1,622
1362,509	-3	-1,752
1373,068	-3	-1,723
1383,633	-3	-1,803
1394,193	-3,5	-1,858
1404,752	-3	-1,733
1415,318	-3,5	-1,882
1425,859	-3	-1,688
1436,418	-3	-1,749
1446,984	-3,5	-1,899
1457,537	-3,5	-1,919
1468,097	-4	-1,981
1478,644	-4,5	-2,214
1489,203	-5,5	-2,429
1499,763	-7,5	-2,739
1510,322	-7,5	-2,762
1520,888	-7,5	-2,843
1531,435	-8,5	-2,923
1541,988	-9	-3,05
1552,554	-10	-3,124
1563,095	-8	-2,83
1573,649	-9,5	-3,046
1584,208	-10,5	-3,258
1594,755	-9,5	-3,182
1605,297	-9	-3,036
1615,85	-9,5	-3,141
1626,404	-10	-3,204
1636,963	-11	-3,311
1647,522	-12,5	-3,402
1658,088	-12	-3,364
1668,647	-11	-3,341
1679,213	-12	-3,38
1689,766	-9	-3,179
1700,313	-10,5	-3,317
1710,867	-11,5	-3,356
1721,42	-12,5	-3,396
1731,968	-13,5	-3,449
1742,521	-13	-3,416
1753,08	-12,5	-3,4
1763,64	-12	-3,377
1774,199	-11,5	-3,356
1784,764	-10	-3,229
1795,318	-9,5	-3,172
1805,865	-9,5	-3,189
1816,419	-10,5	-3,295
1826,972	-11	-3,314
1837,531	-11,5	-3,387
1848,109	-13	-3,449
1858,662	-13,5	-3,459
1869,216	-13,5	-3,461
1879,769	-13,5	-3,463
1890,328	-14	-3,459
1900,888	-13,5	-3,466
1911,441	-13	-3,448
1922,007	-13,5	-3,458
1932,548	-13	-3,447
1943,107	-14	-3,477
1953,673	-14	-3,491
1964,226	-14,5	-3,495
1974,78	-14,5	-3,497
1985,339	-14	-3,497
1995,898	-14,5	-3,498
2006,446	-14	-3,498
2016,987	-14,5	-3,499
2027,535	-14,5	-3,499
2038,1	-14	-3,5
2048,659	-14	-3,433
2059,219	-14	-3,263
2069,772	-14	-3,247
2080,338	-11,5	-2,994
2090,885	-12	-2,94
2101,444	-12	-2,821
2111,998	-12	-2,966
2122,545	-14	-3,217
2133,117	-14	-3,365
2143,67	-14	-3,456
2154,235	-14	-3,445
2164,789	-14	-3,248
2175,336	-13,5	-3,161
2185,884	-13,5	-3,192
2196,425	-14	-3,185
2206,978	-13,5	-3,094
2217,532	-11,5	-2,915
2228,079	-9	-2,626
2238,627	-8,5	-2,635
2249,18	-7,5	-2,429
2259,739	-5,5	-2,145
2270,293	-6	-2,268
2280,858	-7	-2,38
2291,412	-7,5	-2,466
2301,959	-9,5	-2,699
2312,512	-10	-2,802
2323,072	-10	-2,832
2333,619	-10,5	-2,943
2344,185	-12	-3,13
2354,738	-13,5	-3,294
2365,279	-13	-3,327
2375,833	-13	-3,264
2386,392	-13	-3,342
2396,934	-13	-3,499
2407,493	-13,5	-3,499
2418,046	-13	-3,499
2428,6	-13	-3,499
2439,141	-13	-3,499
2449,701	-13	-3,499
2460,248	-13	-3,499
2470,801	-13	-3,499
2481,355	-13	-3,499
2491,908	-12,5	-3,499
2502,467	-12,5	-3,499
2513,021	-12,5	-3,5
2523,574	-12,5	-3,376
2534,128	-11	-3,112
2544,681	-10,5	-2,959
2555,234	-8,5	-2,753
2565,782	-8,5	-2,719
2576,335	-8	-2,694
2586,889	-8	-2,78
2597,436	-9,5	-2,832
2607,995	-8,5	-2,724
2618,561	-7,5	-2,714
2629,114	-8	-2,677
2639,668	-6,5	-2,555
2650,215	-5	-2,359
2660,774	-3,5	-2,063
2671,334	-4	-2,108
2681,887	-2,5	-1,898
2692,453	-1,5	-1,589
2703,012	-1	-1,278
2713,553	-0,5	-1,101
2724,119	0	-0,739
2734,672	0	-0,549
2745,214	0,5	-0,419
2755,761	0,5	-0,36
2766,302	0,5	-0,234
2776,862	1,5	-0,091
2787,409	2	-0,035
2797,963	2,5	-0,013
2808,528	2,5	-0,006
2819,087	2,5	-0,003
2829,647	3	-0,001
2840,188	2,5	-0,121
2850,736	1,5	-0,468
2861,289	0	-0,866
2871,83	-0,5	-1,06
2882,378	-0,5	-1,092
2892,943	-0,5	-1,337
2903,497	-1,5	-1,571
2914,05	-1,5	-1,718
2924,609	-2,5	-2,104
2935,151	-3	-2,308
2945,716	-3,5	-2,666
2956,27	-5	-3,014
2966,829	-6	-3,228
2977,388	-7,5	-3,388
2987,936	-7,5	-3,428
2998,501	-8,5	-3,465
3009,049	-8	-3,468
3019,596	-8,5	-3,484
3030,143	-8,5	-3,49
3040,697	-8	-3,491
3051,25	-8,5	-3,491
3061,798	-8	-3,496
3072,339	-8	-3,498
3082,892	-8,5	-3,497
3093,434	-8	-3,494
3103,981	-8	-3,492
3114,535	-8	-3,484
3125,082	-8	-3,488
3135,629	-8	-3,491
3146,183	-8	-3,494
3156,73	-8	-3,492
3164,29	3	0

File: _5.txt
Time (s)	Load (N)	Displacement (mm)
72,223	-22,5	-3,497
79,465	1,5	-0,036
86,688	-9	-2,172
93,9	-20,5	-3,059
101,119	2	-0,021
108,341	-10,5	-2,438
115,554	-18,5	-2,84
122,776	2,5	-0,005
130,012	-12,5	-2,8
137,241	-13	-2,35
144,477	2	-0,001
151,713	-18	-3,348
158,936	-7	-1,635
166,16	2	-0,19
173,389	-20,5	-3,482
253,065	-18	-3,424
260,288	-4	-1,387
267,554	0	-0,638
274,789	-19,5	-3,495
282,031	0	-0,484
289,273	-4,5	-1,627
296,514	-19,5	-3,383
303,751	2	-0,025
311,003	-9	-2,475
318,245	-13	-2,573
325,499	2,5	-0,003
332,746	-15	-3,285
339,982	-5,5	-1,704
347,235	2,5	-0,224
354,477	-19	-3,487
470,414	-3,5	-1,538
477,65	-18,5	-3,499
484,891	2	-0,047
492,139	-8	-2,435
499,393	-12	-2,633
506,634	3	-0,002
513,87	-13,5	-3,135
521,105	-6,5	-1,96
528,341	2,5	-0,014
535,6	-17,5	-3,477
542,836	-2	-1,128
550,084	-0,5	-0,897
557,313	-18	-3,497
564,561	1	-0,158
571,802	-4	-1,822
579,038	-17,5	-3,129
586,268	3	-0,014
593,503	-8	-2,595
600,757	-10,5	-2,434
607,998	3	-0,001
723,882	-7	-2,098
731,129	3	-0,001
738,371	-14,5	-3,378
745,625	-4	-1,641
752,866	2,5	-0,325
760,102	-17	-3,478
767,349	-1,5	-1,015
774,585	-1	-0,929
781,832	-17	-3,498
789,062	0,5	-0,411
796,304	-2,5	-1,429
803,539	-17	-3,499
810,787	1	-0,179
818,028	-3,5	-1,741
825,252	-17	-3,5
832,488	1,5	-0,122
839,729	-4	-1,721
846,977	-17	-3,5
854,206	2	-0,076
861,454	-4,5	-1,912
868,695	-16,5	-3,348
875,925	2,5	-0,036
883,161	-5	-2,146
890,396	-14	-2,938
897,632	3	-0,01
904,873	-7,5	-2,557
912,103	-12	-2,747
919,345	3	-0,01
926,58	-7,5	-2,577
933,822	-10,5	-2,529
941,057	3	-0,003
948,281	-8,5	-2,76
955,517	-9	-2,377
962,752	3	-0,002
970,003	-12	-3,235
1194,297	0	-0,644
1201,526	-1,5	-1,105
1208,75	-16	-3,498
1215,992	0	-0,502
1223,227	-2	-1,138
1230,457	-16	-3,497
1237,686	0	-0,713
1244,916	-1,5	-1,058
1252,152	-16	-3,497
1259,412	0	-0,538
1266,647	-1,5	-1,092
1273,876	-16	-3,497
1281,106	0	-0,545
1288,335	-1,5	-1,144
1295,565	-15,5	-3,498
1302,801	0,5	-0,409
1310,03	-2	-1,335
1317,266	-15,5	-3,5
1324,495	2	-0,07
1331,713	-3,5	-1,915
1338,955	-15	-3,199
1346,19	3	-0,017
1353,42	-6	-2,382
1360,661	-10	-2,687
1367,879	3	-0,007
1375,121	-7	-2,623
1382,356	-9	-2,555
1389,58	3	-0,003
1396,809	-12	-3,342
1404,039	-4	-1,837
1411,268	3	-0,003
1418,504	-14,5	-3,438
1425,722	-2,5	-1,538
1432,951	2,5	-0,268
1440,181	-15	-3,481
1447,41	-1	-1,256
1454,64	1	-0,535
1461,87	-15	-3,482
1469,093	-1	-1,148
1476,323	0	-0,68
1483,558	-15	-3,493
1490,788	0	-0,768
1498,017	-1	-0,901
1505,253	-15	-3,496
1512,489	0	-0,644
1519,718	-0,5	-0,914
1526,954	-15,5	-3,496
1534,183	-0,5	-0,892
1541,419	0	-0,728
1548,649	-15	-3,489
1555,872	-1	-1,077
1563,108	1	-0,557
1570,337	-15	-3,486
1577,567	-1,5	-1,187
1584,797	1,5	-0,461
1592,026	-15	-3,479
1599,256	-2,5	-1,405
1606,479	3	-0,18
1613,709	-15	-3,46
1620,939	-3,5	-1,691
1628,174	3	0
1635,416	-12,5	-3,413
1642,645	-4,5	-1,872
1649,881	3	-0,001
1657,11	-11	-3,29
1664,34	-5	-2,034
1671,57	3	-0,001
1678,793	-9,5	-3,153
1686,041	-6	-2,17
1693,27	3	-0,002
1700,5	-8,5	-2,883
1707,73	-7,5	-2,309
1714,959	3	-0,004
1722,177	-8	-2,79
1729,406	-9,5	-2,62
1736,642	3	-0,005
1743,871	-7	-2,602
1751,101	-9	-2,601
1758,325	3	-0,008
1765,554	-5,5	-2,446
1772,778	-13,5	-3,034
1780,013	2,5	-0,047
1787,243	-3	-1,885
1794,467	-15	-3,244
1801,69	2,5	-0,056
1808,914	-3,5	-1,965
1816,143	-15	-3,499
1823,379	1,5	-0,128
1830,609	-3	-1,702
1837,844	-15	-3,499
1845,074	1,5	-0,148
1852,297	-2,5	-1,612
1859,521	-15	-3,499
1866,756	1,5	-0,183
1873,98	-2	-1,437
2025,789	3	-0,299
2033,025	-13,5	-3,446
2040,249	-3	-1,661
2047,478	3	0
2054,72	-13	-3,417
2061,943	-4	-1,876
2069,173	3	-0,001
2076,402	-11	-3,325
2083,632	-4,5	-1,961
2090,862	3	-0,001
2098,091	-11	-3,293
2105,327	-4,5	-1,927
2112,556	3	-0,001
2119,798	-10	-3,242
2127,022	-6	-2,216
2134,257	3	-0,002
2141,487	-9	-3,048
2148,716	-6	-2,298
2155,94	3	-0,003
2163,163	-6	-2,722
2170,387	-9	-2,624
2177,611	3	-0,005
2184,852	-6,5	-2,722
2192,088	-9,5	-2,696
2199,311	3	-0,008
2206,547	-5,5	-2,501
2213,771	-11,5	-2,908
2221	3	-0,017
2228,236	-4	-2,225
2235,477	-14,5	-3,159
2242,701	3	-0,024
2249,943	-4,5	-2,346
2257,172	-12	-2,948
2264,396	3	-0,02
2271,625	-4	-2,161
2278,849	-14,5	-3,311
2286,084	2,5	-0,052
2293,314	-3	-1,912
2300,544	-14,5	-3,475
2307,767	2	-0,077
2351,145	2	-0,072
2358,374	-3	-1,842
2365,598	-15	-3,486
2372,834	2	-0,093
2380,063	-2,5	-1,747
2387,287	-14,5	-3,499
2394,516	1,5	-0,213
2401,746	-2	-1,44
2408,957	-15	-3,498
2416,187	0	-0,554
2423,423	-1	-1,172
2430,658	-15	-3,497
2437,894	0	-0,597
2445,123	-1	-0,961
2452,359	-15	-3,496
2495,737	-14,5	-3,493
2502,966	0	-0,962
2510,202	0	-0,73
2517,437	-14,5	-3,49
2524,655	-0,5	-0,968
2531,891	0,5	-0,657
2539,126	-14,5	-3,492
2546,356	-1	-1,046
2553,579	1,5	-0,609
2560,815	-14	-3,485
2568,038	-1,5	-1,274
2575,268	3	-0,261
2582,492	-12,5	-3,42
2589,715	-3,5	-1,779
2596,945	3	-0,014
2784,824	-10,5	-2,835
2792,048	3	-0,01
2799,271	-4	-2,349
2806,501	-12	-3,029
2813,724	3	-0,027
2820,942	-3	-2,116
2828,172	-12,5	-3,284
2835,389	2,5	-0,073
2842,613	-2	-1,632
2849,824	-12,5	-3,498
2929,32	3	-0,001
2936,555	-8	-3,226
2943,779	-4,5	-2,261
2951,002	3	-0,004
2958,238	-5	-2,638
2965,456	-9	-2,955
2972,679	2,5	-0,028
2979,903	-2,5	-1,901
2987,132	-12	-3,499
2994,356	1	-0,252
3001,58	-1,5	-1,516
3008,809	-12,5	-3,498
3016,033	0,5	-0,56
3023,268	-0,5	-0,984
3030,504	-12	-3,496
3037,728	-0,5	-1,009
3044,951	0	-0,773
3052,175	-12	-3,489
3059,41	0	-1,067
3066,64	3	-0,416
3073,863	-10	-3,437
3081,093	-1,5	-1,666
3088,323	3	-0,041
3095,552	-8,5	-3,35
3102,776	-3	-2
3109,999	3	-0,002
3117,241	-5,5	-2,947
3124,471	-5,5	-2,603
3131,7	3	-0,006
3138,93	-4	-2,585
3182,253	-1	-1,345
3189,489	-10,5	-3,498
3196,718	0	-0,56
3203,948	-0,5	-0,986
3211,178	-10,5	-3,496
3218,395	0	-1,078
3225,619	2	-0,402
3232,842	-9	-3,448
3240,084	-1,5	-1,684
3247,308	3	0
3251,645	3	0