Folder: Data-filter--cyclical-tests-BEPE-project-/Cycling_tests/_50perc/_3gap/entrada

Note: README.md
# Data filter (cyclical tests BEPE project)
python aplication to treat data get by fatigue testing machine

File: _2.txt
Time (s)	Load (N)	Displacement (mm)
0	0	-0,03
10,63	0	-0,394
21,19	1	-0,294
31,773	0	-0,562
42,345	0	-0,528
52,934	1	-0,34
63,523	1	-0,37
74,107	1,5	-0,132
84,69	1,5	-0,002
95,321	1,5	-0,001
105,917	1,5	-0,222
116,518	1,5	-0,003
127,114	2	-0,011
137,697	2	-0,007
148,269	1,5	-0,073
158,858	2	-0,051
169,459	1	-0,172
180,067	0	-0,308
190,662	1	-0,135
201,252	1	-0,112
211,853	0,5	-0,224
222,46	1	-0,116
233,092	2	-0,036
243,705	1	-0,07
254,307	1,5	-0,051
264,926	2	-0,021
275,521	1,5	-0,049
286,141	1,5	-0,048
296,748	2	-0,016
307,367	2	-0,009
317,957	2	-0,006
328,564	2	-0,003
339,184	2	-0,001
349,785	2	-0,001
360,392	1,5	-0,306
371	1,5	-0,41
381,595	1,5	-0,401
392,203	1,5	-0,297
402,804	1,5	-0,463
413,423	-1	-0,946
424,031	-1,5	-1,141
434,656	-2	-1,255
445,263	-2	-1,258
455,883	-2,5	-1,455
466,502	-2,5	-1,363
477,122	-2	-1,331
487,735	-3	-1,524
498,33	-2,5	-1,465
508,938	-3	-1,494
519,575	-4	-1,882
530,195	-5	-2,216
540,796	-5	-2,247
551,403	-3	-1,665
562,011	-2,5	-1,483
572,612	-2	-1,222
583,232	-2	-1,264
593,839	-2	-1,271
604,458	-2	-1,402
615,084	-2,5	-1,566
625,691	-3	-1,707
636,305	-3,5	-1,953
646,906	-3,5	-1,83
657,519	-3	-1,746
668,127	-3	-1,692
678,728	-3	-1,718
689,342	-3	-1,814
699,955	-4	-1,942
710,556	-4,5	-2,16
721,164	-6	-2,429
731,765	-7	-2,578
742,373	-7,5	-2,745
752,98	-10	-3,073
763,593	-11	-3,258
774,195	-12	-3,342
784,802	-13,5	-3,44
795,409	-14,5	-3,472
806,011	-14	-3,466
816,636	-14,5	-3,474
827,262	-14,5	-3,486
837,863	-14,5	-3,491
848,47	-14,5	-3,496
859,084	-15	-3,498
869,685	-14,5	-3,498
880,287	-14,5	-3,499
890,882	-14,5	-3,499
901,483	-14,5	-3,393
912,073	-14,5	-3,237
922,68	-13,5	-3,03
933,294	-11	-2,848
943,901	-10,5	-2,788
954,514	-8	-2,45
965,122	-6	-2,139
975,729	-4	-1,829
986,325	-3	-1,533
996,914	-2,5	-1,525
1007,509	-3	-1,668
1018,093	-4	-1,874
1028,688	-6,5	-2,262
1039,284	-9	-2,6
1049,867	-11,5	-2,93
1060,462	-14	-3,251
1071,052	-14	-3,371
1081,647	-14	-3,365
1092,231	-14,5	-3,499
1102,814	-14	-3,499
1113,397	-14,5	-3,498
1123,999	-14	-3,498
1134,594	-14	-3,496
1145,177	-14	-3,496
1155,767	-14	-3,497
1166,35	-14,5	-3,498
1176,952	-14	-3,498
1187,535	-14	-3,495
1198,13	-14	-3,488
1208,732	-13,5	-3,472
1219,327	-11,5	-3,379
1229,917	-10	-3,221
1240,518	-10	-3,224
1251,119	-9	-3,1
1261,715	-8	-2,909
1272,31	-7	-2,725
1282,906	-6	-2,604
1293,507	-6	-2,651
1304,102	-5,5	-2,643
1314,704	-5,5	-2,53
1325,311	-5,5	-2,597
1335,901	-5,5	-2,575
1346,496	-3,5	-2,182
1357,085	-4	-2,164
1367,681	-3	-1,931
1378,27	-3	-1,909
1388,866	-2,5	-1,66
1399,461	-1,5	-1,422
1410,05	-1,5	-1,171
1420,652	-0,5	-0,846
1431,247	0	-0,773
1441,843	0	-0,646
1452,432	1,5	-0,506
1463,033	1,5	-0,459
1473,623	2	-0,108
1484,218	2	0
1494,814	2	-0,001
1505,415	2	-0,001
1516,01	2	-0,002
1526,606	2	-0,002
1537,183	2	-0,001
1547,772	2,5	-0,001
1558,356	2,5	-0,001
1568,951	2	-0,001
1579,541	2,5	-0,001
1590,13	2,5	-0,002
1600,719	2,5	-0,004
1611,315	2,5	-0,002
1621,904	2,5	-0,001
1632,488	2	-0,158
1643,071	2,5	-0,141
1653,66	2	-0,071
1664,256	2,5	-0,001
1674,845	2,5	-0,001
1685,441	2	-0,001
1696,03	2	-0,131
1706,613	1,5	-0,412
1717,203	1,5	-0,36
1727,792	2,5	0
1738,388	2,5	-0,046
1748,983	1,5	-0,39
1759,56	0	-0,754
1770,144	0	-0,764
1780,733	-1	-1,214
1791,317	-2	-1,613
1801,9	-3	-1,97
1812,477	-1,5	-1,589
1823,061	-1,5	-1,534
1833,656	-1,5	-1,34
1844,252	0	-0,725
1854,847	0,5	-0,688
1865,436	2	-0,21
1876,02	2,5	-0,001
1886,609	2	-0,002
1897,211	2,5	-0,004
1907,788	2,5	-0,011
1918,389	1,5	-0,07
1928,973	0,5	-0,231
1939,562	0	-0,486
1950,164	0	-0,635
1960,753	-1	-1,084
1971,336	-2	-1,456
1981,926	-2	-1,575
1992,515	-3,5	-1,811
2003,104	-3	-1,684
2013,688	-2,5	-1,658
2024,277	-0,5	-1,022
2034,873	-0,5	-0,92
2045,456	0	-0,733
2056,045	0	-0,624
2066,629	0	-0,559
2077,218	0,5	-0,276
2087,808	1,5	-0,11
2098,391	1	-0,115
2108,98	0,5	-0,242
2119,558	1	-0,256
2130,165	0,5	-0,222
2140,749	0,5	-0,343
2151,338	0	-0,532
2161,945	1	-0,148
2172,523	1,5	-0,11
2183,118	1	-0,126
2193,708	2,5	-0,01
2204,303	2	-0,005
2214,886	2,5	-0,001
2225,476	2	0
2236,059	2	-0,07
2246,649	2,5	-0,156
2257,238	2	0
2267,833	2	-0,001
2278,417	2,5	-0,001
2289,006	2,5	0
2299,59	2	-0,264
2310,179	2	0
2320,768	2	0
2331,358	2	-0,083
2341,953	2	-0,004
2352,542	2	-0,197
2363,126	2	-0,108
2373,715	2	-0,19
2384,299	2,5	-0,058
2394,9	2,5	-0,206
2405,477	2,5	-0,012
2416,067	2,5	-0,007
2426,65	2,5	-0,012
2437,24	2,5	-0,013
2447,835	2,5	-0,004
2458,412	2,5	-0,004
2469,008	2,5	-0,002
2479,597	2,5	-0,001
2490,181	2	-0,001
2500,77	2,5	0
2511,353	2,5	-0,012
2521,943	2	-0,036
2532,52	2	-0,001
2543,098	2,5	-0,001
2553,675	2,5	0
2564,27	1,5	-0,394
2574,866	1,5	-0,4
2585,461	1,5	-0,494
2596,057	0	-0,787
2606,646	-0,5	-1,094
2617,241	-0,5	-1,005
2627,831	-0,5	-1,173
2638,42	-1	-1,352
2649,01	-1,5	-1,504
2659,599	-1,5	-1,534
2670,188	-1	-1,256
2680,784	-1	-1,342
2691,373	-1,5	-1,416
2701,969	-1,5	-1,545
2712,564	-2	-1,641
2723,153	-2,5	-2,087
2733,743	-4	-2,409
2744,332	-4,5	-2,63
2754,922	-7	-3,086
2765,517	-10	-3,39
2776,1	-10	-3,396
2786,69	-11	-3,481
2797,279	-11	-3,491
2807,868	-11	-3,492
2818,458	-11	-3,491
2829,041	-10,5	-3,479
2839,631	-10,5	-3,474
2850,22	-10,5	-3,482
2860,797	-10,5	-3,488
2871,381	-10,5	-3,492
2881,964	-10,5	-3,496
2892,554	-10,5	-3,498
2903,149	-10,5	-3,499
2913,732	-10,5	-3,499
2924,322	-10	-3,499
2934,893	-10	-3,499
2945,471	-10	-3,499
2956,06	-10	-3,499
2966,643	-10	-3,499
2977,227	-10	-3,499
2987,816	-9,5	-3,5
2998,406	-9	-3,165
3008,989	-8,5	-3,009
3019,578	-5	-2,685
3030,168	-5,5	-2,715
3040,751	-4	-2,347
3051,329	-4	-2,383
3061,918	-2,5	-2,114
3072,501	-2	-1,938
3083,085	-2,5	-2,044
3093,674	-2	-1,998
3104,27	-3	-2,253
3114,859	-6,5	-2,945
3125,442	-7	-2,973
3136,032	-6,5	-2,968
3146,615	-8	-3,172
3157,205	-8	-3,24
3167,788	-7,5	-3,359
3177,309	2,5	-0,001

File: _5.txt
Time (s)	Load (N)	Displacement (mm)
0	0	-0,027
10,569	1	-0,295
21,105	1,5	-0,024
31,64	1,5	0
42,181	2	0
52,753	1,5	-0,127
63,312	1,5	-0,388
73,872	1,5	-0,353
84,443	0	-0,672
94,984	0	-0,76
105,55	-2	-1,09
116,121	-4	-1,449
126,681	-4,5	-1,68
137,222	-5	-1,859
147,769	-5,5	-2,018
158,329	-6	-2,175
168,876	-6	-2,126
179,43	-6	-2,121
189,965	-5,5	-2,094
200,512	-4	-1,616
211,06	-4	-1,644
221,607	-4	-1,575
232,142	-1	-0,941
242,714	-2	-1,051
253,273	0	-0,692
263,821	0,5	-0,576
274,38	2	-0,36
284,939	2,5	0
295,487	2,5	-0,004
306,04	2,5	-0,008
316,6	2	-0,042
327,153	1	-0,192
337,688	0	-0,51
348,242	-0,5	-0,734
358,789	-5	-1,793
369,355	-6	-1,898
379,926	-7,5	-2,16
390,497	-9,5	-2,502
401,063	-12	-2,762
411,622	-13	-2,903
422,188	-12,5	-2,818
432,753	-11,5	-2,812
443,33	-15	-3,131
453,884	-13,5	-2,971
464,449	-14,5	-3,088
475,015	-15	-3,459
485,586	-15	-3,499
496,145	-15	-3,497
506,687	-15	-3,498
517,258	-15	-3,498
527,812	-15	-3,344
538,383	-13,5	-3,062
548,972	-10,5	-2,697
559,544	-9,5	-2,559
570,109	-11	-2,72
580,681	-8,5	-2,438
591,234	-8	-2,392
601,787	-7,5	-2,43
612,371	-7,5	-2,324
622,942	-6	-2,165
633,502	-5	-2,036
644,067	-4,5	-1,854
654,62	-4	-1,798
665,186	-3,5	-1,659
675,751	-3	-1,515
686,334	-2,5	-1,445
696,918	-2	-1,329
707,483	-2	-1,302
718,025	-2	-1,389
728,584	-1,5	-1,245
739,161	-1	-1,066
749,739	-0,5	-0,889
760,292	-0,5	-0,917
770,888	-1	-0,964
781,483	-0,5	-0,798
792,054	-0,5	-0,814
802,644	-1	-1,051
813,227	-0,5	-0,864
823,823	-0,5	-0,768
834,4	0	-0,675
844,953	0	-0,643
855,531	0	-0,349
866,126	1,5	-0,137
876,704	1,5	-0,083
887,287	2,5	-0,028
897,888	2,5	-0,008
908,466	3	-0,002
919,031	3	-0,002
929,603	3	-0,001
940,168	2,5	-0,001
950,733	2,5	-0,001
961,329	2,5	-0,168
971,894	2,5	-0,316
982,484	1,5	-0,479
993,055	1,5	-0,59
1003,62	0,5	-0,616
1014,198	0	-0,703
1024,775	1	-0,652
1035,347	-1	-0,991
1045,924	-2	-1,34
1056,489	-3	-1,521
1067,061	-3	-1,63
1077,632	-4	-1,942
1088,198	-4,5	-2,171
1098,757	-5	-2,3
1109,328	-5	-2,374
1119,894	-5,5	-2,406
1130,465	-5	-2,42
1141,042	-6,5	-2,672
1151,602	-7	-2,776
1162,179	-8	-2,985
1172,751	-9,5	-3,18
1183,316	-10	-3,225
1193,887	-11	-3,316
1204,465	-12,5	-3,41
1215,03	-13	-3,456
1225,608	-13	-3,467
1236,173	-13,5	-3,487
1246,75	-13,5	-3,492
1257,31	-13,5	-3,495
1267,881	-13,5	-3,496
1278,447	-13,5	-3,498
1289,018	-13,5	-3,498
1299,577	-13	-3,499
1310,155	-13,5	-3,5
1320,72	-13,5	-3,418
1331,286	-13,5	-3,216
1341,851	-12	-2,964
1352,41	-11	-2,87
1363	-8,5	-2,633
1373,571	-9	-2,656
1384,149	-7,5	-2,404
1394,714	-6,5	-2,418
1405,285	-6,5	-2,347
1415,857	-6	-2,236
1426,422	-4,5	-1,981
1436,988	-3	-1,718
1447,553	-3	-1,634
1458,112	-2,5	-1,494
1468,672	-1,5	-1,295
1479,231	-1	-1,144
1489,809	-0,5	-0,904
1500,38	-0,5	-0,675
1510,963	0	-0,34
1521,547	1,5	-0,1
1532,112	2	-0,075
1542,684	2,5	-0,028
1553,261	2,5	-0,013
1563,814	2,5	-0,008
1574,386	3	-0,004
1584,951	2,5	-0,002
1595,516	3	-0,001
1606,082	2,5	0
1616,647	3	-0,186
1627,201	1,5	-0,476
1637,766	1,5	-0,44
1648,332	0,5	-0,648
1658,903	-0,5	-0,822
1669,474	-1	-1,012
1680,034	-2	-1,255
1690,599	-2,5	-1,504
1701,17	-3	-1,688
1711,742	-3	-1,74
1722,301	-3,5	-1,94
1732,867	-3,5	-2,041
1743,426	-3,5	-2,053
1753,991	-4,5	-2,256
1764,557	-5	-2,426
1775,122	-5,5	-2,597
1785,7	-7	-2,954
1796,271	-6,5	-2,879
1806,842	-8	-3,158
1817,42	-10	-3,356
1827,979	-10,5	-3,411
1838,557	-12	-3,459
1849,122	-12	-3,479
1859,687	-12,5	-3,484
1870,253	-12,5	-3,488
1880,818	-12,5	-3,492
1891,378	-12,5	-3,49
1901,931	-12,5	-3,492
1912,496	-12,5	-3,497
1923,05	-12,5	-3,498
1933,615	-12,5	-3,498
1944,181	-12,5	-3,499
1954,752	-12,5	-3,499
1965,311	-12,5	-3,431
1975,889	-12,5	-3,274
1986,448	-12,5	-3,294
1997,014	-12,5	-3,283
2007,591	-12,5	-3,248
2018,156	-12	-3,139
2028,716	-11	-3,045
2039,287	-10,5	-2,925
2049,841	-9,5	-2,813
2060,406	-7,5	-2,509
2070,965	-6	-2,364
2081,525	-6	-2,373
2092,09	-5	-2,255
2102,668	-4	-2,068
2113,233	-2,5	-1,658
2123,804	-2	-1,447
2134,376	-1	-1,23
2144,947	-0,5	-0,971
2155,507	0	-0,789
2166,06	0	-0,789
2176,607	0	-0,618
2187,173	0	-0,378
2197,732	0,5	-0,297
2208,304	0,5	-0,185
2218,875	1,5	-0,126
2229,44	2	-0,086
2240,012	2	-0,068
2250,577	2,5	-0,04
2261,142	3	-0,02
2271,714	2,5	-0,01
2282,285	3	-0,005
2292,869	3	-0,002
2303,428	2,5	-0,001
2313,993	3	-0,02
2324,559	2,5	-0,316
2335,13	1,5	-0,535
2345,702	0	-0,836
2356,273	-1	-1,1
2366,844	-1,5	-1,258
2377,416	-1,5	-1,368
2387,987	-1,5	-1,505
2398,553	-2	-1,415
2409,118	-2	-1,596
2419,689	-2,5	-1,7
2430,261	-3	-1,975
2440,82	-3	-2,005
2451,386	-4	-2,222
2461,945	-4,5	-2,406
2472,51	-4,5	-2,496
2483,076	-6	-2,911
2493,647	-7,5	-3,112
2504,219	-8,5	-3,306
2514,79	-10,5	-3,437
2525,355	-11,5	-3,465
2535,921	-12	-3,474
2546,492	-12	-3,481
2557,064	-12	-3,485
2567,623	-12	-3,486
2578,194	-11,5	-3,478
2588,772	-5,5	-2,806
2599,337	-6	-2,78
2609,909	-4	-2,39
2620,474	-5	-2,614
2631,039	-6	-2,896
2641,623	-8	-3,214
2652,188	-9	-3,356
2662,76	-10,5	-3,429
2673,325	-11	-3,466
2683,896	-11,5	-3,484
2694,45	-11,5	-3,493
2705,009	-11	-3,494
2715,568	-11,5	-3,496
2726,128	-11,5	-3,497
2736,699	-11	-3,476
2747,265	-11	-3,482
2757,824	-11	-3,488
2768,389	-10,5	-3,446
2778,949	-9,5	-3,39
2789,52	-10	-3,437
2800,086	-10	-3,438
2810,663	-9	-3,385
2821,228	-9,5	-3,435
2831,806	-10,5	-3,49
2842,371	-10,5	-3,494
2852,937	-10,5	-3,496
2863,49	-10,5	-3,497
2874,061	-10,5	-3,498
2884,639	-10	-3,498
2895,222	-10	-3,498
2905,794	-10	-3,499
2916,377	-9,5	-3,499
2926,942	-9,5	-3,499
2937,526	-10	-3,498
2948,103	-9,5	-3,492
2958,681	-9,5	-3,48
2969,258	-9,5	-3,487
2979,817	-6,5	-3,232
2990,395	-7,5	-3,394
3000,972	-5	-2,995
3011,532	-6	-3,204
3022,103	-5,5	-3,231
3032,656	-7	-3,396
3043,228	-3	-2,47
3053,817	-3	-2,396
3064,377	-4,5	-2,913
3074,942	-3	-2,6
3085,513	-2	-2,036
3096,085	-1	-1,5
3106,662	-1	-1,195
3117,222	-0,5	-1,102
3127,781	-1	-1,255
3138,352	-1	-1,098
3148,906	-1	-1,039
3159,471	-1,5	-1,656
3165,399	2,5	-0,001