Folder: Data-filter--cyclical-tests-BEPE-project-/ensaios_Ciclicos/_30perc/_2gap/entrada

Note: README.md
# Data filter (cyclical tests BEPE project)
python aplication to treat data get by fatigue testing machine

File: _1.txt
Time (s)	Load (N)	Displacement (mm)
45,647	-4,5	-1,192
56,227	4	0
67,428	-9,5	-2,12
77,531	4,5	-0,019
87,863	-7,5	-1,716
141,194	-15,5	-3,003
151,219	5	-0,006
161,868	4,5	-0,056
171,852	-23	-3,499
181,89	-2,5	-1,198
192,041	3,5	-0,196
202,456	-11,5	-2,361
212,199	-2,5	-1,09
263,215	-1	-1,292
273,174	-19	-3,343
282,569	-4	-1,765
292,307	-4,5	-1,773
301,93	-13,5	-2,491
311,896	-6	-2,172
321,442	-12	-2,447
330,963	5	0
418,222	-4,5	-1,866
427,401	-21	-3,494
436,935	3,5	-0,196
446,102	4,5	-0,363
493,289	1,5	-0,689
502,319	6	-0,004
511,504	-3	-1,638
520,552	-16	-3,36
529,587	-19,5	-3,472
538,677	-0,5	-1,391
547,664	5	-0,06
556,776	4,5	-0,35
565,813	-5,5	-2,182
612,695	3	-0,36
621,73	5,5	-0,002
630,778	-1	-1,069
639,753	-7,5	-2,476
648,8	-19,5	-3,494
657,812	-14	-2,847
666,847	0,5	-1,044
675,955	5,5	-0,003
722,38	-18,5	-3,469
731,404	-19	-3,354
740,427	-1	-1,496
749,373	4	-0,162
758,33	5,5	-0,002
767,276	0,5	-0,684
776,3	-5	-2,365
785,299	-19	-3,47
869,234	5,5	-0,006
878,179	-1	-1,238
887,113	-6,5	-2,494
896,052	-17,5	-3,446
905,022	-18,5	-3,499
913,932	-9,5	-2,608
922,895	0	-1,244
931,786	4	-0,185
940,732	5,5	-0,003
949,695	0,5	-0,785
958,683	-5	-2,412
967,562	-13,5	-3,34
1050,489	-6	-2,283
1059,435	1,5	-0,82
1068,429	5,5	-0,01
1077,398	5	-0,291
1086,319	-1,5	-1,249
1095,229	-5	-2,406
1104,18	-16,5	-3,438
1113,09	-18	-3,498
1122,005	-11	-2,758
1130,939	0	-1,401
1139,884	4,5	-0,097
1148,818	5,5	-0,002
1157,715	2,5	-0,551
1166,679	-3,5	-2
1175,582	-12	-3,222
1184,51	-17,5	-3,496
1193,437	-13,5	-2,967
1202,377	-1,5	-1,776
1211,238	1,5	-0,853
1220,13	5	-0,068
1229,015	5,5	-0,002
1311,517	5,5	-0,319
1320,414	-1	-1,338
1329,354	-6	-2,65
1338,221	-14,5	-3,383
1347,167	-17	-3,498
1356,094	-12	-2,82
1365,016	-1,5	-1,629
1373,907	1,5	-0,764
1382,763	4,5	-0,089
1391,63	5,5	-0,004
1400,522	5,5	0
1409,359	1,5	-0,632
1418,304	-2,5	-1,836
1427,184	-7	-2,792
1436,069	-16	-3,464
1444,919	-17	-3,498
1453,84	-15	-3,08
1462,75	-3	-1,979
1471,581	0	-1,319
1480,503	3	-0,253
1489,389	5,5	-0,015
1498,196	5,5	-0,002
1507,034	5,5	-0,104
1515,925	-0,5	-1,098
1524,81	-3,5	-2,097
1533,678	-9	-3,013
1542,546	-15,5	-3,459
1551,395	-16,5	-3,498
1560,202	-16,5	-3,351
1569,094	-6	-2,408
1577,964	-1	-1,693
1586,799	1	-0,886
1595,685	4,5	-0,087
1604,528	5,5	-0,006
1613,329	5,5	-0,002
1622,137	5	-0,196
1631,046	-1,5	-1,412
1639,872	-4	-2,138
1648,691	-8,5	-2,967
1657,481	-14,5	-3,386
1666,3	-16,5	-3,48
1675,138	-16,5	-3,497
1683,945	-16,5	-3,499
1692,711	-16	-3,249
1701,578	-3,5	-2,214
1710,434	0	-1,417
1719,248	1	-0,835
1728,043	3	-0,271
1736,832	5	-0,041
1745,64	5,5	-0,007
1754,417	5,5	-0,002
1763,219	5	0
1772,044	4,5	-0,442
1780,846	0	-1,017
1789,665	-1,5	-1,682
1798,455	-4,5	-2,335
1807,238	-6,5	-2,81
1816,028	-10,5	-3,297
1824,811	-16	-3,475
1833,733	-16	-3,499
1842,552	-13,5	-3,015
1851,396	-5	-2,305
1896,603	-16	-3,498
1905,381	-15,5	-3,499
1914,254	-7,5	-2,576
1923,05	-3	-1,954
1931,851	0	-1,445
1940,653	1,5	-0,775
1949,424	3,5	-0,25
1958,214	4,5	-0,064
1967,069	5,5	-0,006
1975,865	5,5	-0,002
1984,726	5,5	-0,196
1993,498	3,5	-0,556
2002,323	-0,5	-1,331
2011,131	-2,5	-2,027
2019,938	-6	-2,753
2028,758	-15	-3,43
2037,559	-15,5	-3,495
2046,337	-15,5	-3,499
2055,12	-15	-3,164
2063,916	-6	-2,496
2072,753	-0,5	-1,603
2081,525	0,5	-1,056
2090,302	2,5	-0,415
2099,116	4,5	-0,069
2107,881	5,5	-0,018
2116,659	5,5	-0,004
2125,436	5,5	-0,001
2134,25	4	-0,409
2143,051	0	-1,026
2151,877	-1,5	-1,69
2160,66	-3,5	-2,195
2169,474	-8	-2,968
2178,263	-14	-3,427
2187,035	-15	-3,489
2195,825	-15,5	-3,498
2204,614	-15	-3,434
2213,385	-11,5	-2,951
2222,163	-7	-2,502
2230,922	-3,5	-2,1
2240,126	5	-0,021
2248,915	5,5	-0,002
2257,681	5	-0,051
2266,482	0,5	-0,779
2275,248	-0,5	-1,333
2284,049	-2,5	-2,005
2292,85	-5	-2,669
2301,628	-8	-3,028
2310,417	-12	-3,399
2319,201	-15	-3,473
2327,973	-15	-3,492
2336,756	-15	-3,498
2345,569	-15	-3,499
2354,401	-9,5	-2,692
2363,209	-4	-2,236
2371,98	-1	-1,812
2380,799	0,5	-1,194
2389,589	1,5	-0,759
2398,36	3	-0,358
2407,18	4,5	-0,057
2415,939	5	-0,041
2424,717	5,5	-0,012
2433,488	5,5	-0,004
2442,272	5,5	-0,001
2451,049	5,5	-0,001
2459,887	4,5	-0,497
2468,664	1	-0,772
2477,484	-0,5	-1,33
2486,261	-1,5	-1,832
2495,045	-3	-2,252
2503,841	-4	-2,516
2512,618	-4,5	-2,785
2521,467	-12,5	-3,412
2530,329	-14,5	-3,494
2539,1	-14,5	-3,499
2547,896	-14,5	-3,238
2556,656	-7,5	-2,718
2565,541	-0,5	-1,504
2574,306	1	-0,969
2583,108	2,5	-0,471
2591,903	5	-0,058
2600,705	5,5	-0,009
2609,494	5,5	-0,003
2618,32	5,5	0
2627,091	5	-0,17
2635,857	4,5	-0,466
2644,628	2	-0,587
2653,388	0	-0,882
2662,207	-0,5	-1,415
2670,985	-2	-2,087
2679,793	-3	-2,447
2688,564	-4	-2,69
2697,359	-7,5	-3,139
2706,131	-9	-3,335
2714,968	-13,5	-3,473
2723,734	-14	-3,49
2732,511	-13,5	-3,496
2741,313	-13,5	-3,499
2750,084	-13,5	-3,415
2758,874	-8	-2,838
2767,651	-3,5	-2,393
2776,441	-1	-1,873
2785,213	0,5	-1,183
2793,978	1,5	-0,783
2802,75	3	-0,332
2811,551	4,5	-0,077
2820,323	5	-0,019
2829,136	5	-0,003
2837,908	5,5	-0,001
2846,697	5	-0,252
2855,462	2	-0,702
2864,24	0	-1,172
2873,017	-1	-1,865
2881,819	-4	-2,738
2890,609	-8	-3,336
2899,398	-10,5	-3,479
2908,175	-10,5	-3,498
2916,947	-10,5	-3,48
2925,766	-3,5	-2,601
2934,556	0	-1,742
2943,333	1	-1,069
2952,099	2,5	-0,462
2960,888	4,5	-0,059
2969,672	5	-0,013
2978,467	5,5	-0,003
2987,263	5	-0,001
2996,04	5	-0,168
3004,812	2,5	-0,63
3013,59	0	-1,212
3022,361	-0,5	-1,754
3031,126	-1,5	-2,229
3039,922	-2,5	-2,693
3048,699	-5	-3,19
3057,483	-8,5	-3,46
3066,242	-9	-3,492
3075,014	-9	-3,498
3083,779	-8,5	-3,5
3092,581	-4,5	-2,836
3101,382	-1	-2,256
3110,148	0	-1,788
3119,028	1,5	-0,807
3127,829	3,5	-0,192
3136,613	5	-0,025
3145,39	5	-0,006
3154,191	5,5	-0,001
3162,963	5	-0,021
3171,752	3,5	-0,552
3180,524	0,5	-0,993
3189,319	0	-1,559
3198,115	-0,5	-2,104
3206,886	-2	-2,556
3215,652	-3,5	-3,066
3224,477	-7	-3,446
3233,261	-8	-3,492
3242,038	-8	-3,498
3250,852	-8	-3,257
3254,056	5	0