Folder: Data-filter--cyclical-tests-BEPE-project-/Cycling_tests/_newS/_2G20/entrada

Note: README.md
# Data filter (cyclical tests BEPE project)
python aplication to treat data get by fatigue testing machine

File: _1.txt
Time (s)	Load (N)	Displacement (mm)
0	-0,28	-0,022
10,695	1,92	-0,264
21,356	2,66	-0,002
32,017	3,06	-0,001
42,691	3,38	-0,006
53,352	3,52	-0,017
64,044	3,84	-0,004
74,723	3,94	-0,014
85,384	3,7	-0,039
96,052	3,22	-0,055
106,725	3,48	-0,062
117,398	-0,62	-0,424
128,072	0,54	-0,352
138,751	0,36	-0,382
149,425	-4,8	-0,948
160,098	-11,64	-1,695
170,777	-13,92	-2,013
181,451	-13,52	-1,939
192,136	-14,38	-2,063
202,804	-16,78	-2,185
213,489	-15,26	-2,233
224,174	-20,24	-2,66
234,86	-22,52	-2,863
245,545	-26,16	-3,291
256,242	-26,2	-3,499
266,928	-26,2	-3,494
277,613	-25,8	-3,475
288,311	-22,4	-3,379
299,026	-17,48	-2,927
309,717	-9,82	-2,16
320,409	-3,94	-1,412
331,118	1,4	-0,884
341,822	4,18	-0,473
352,507	5,82	0
363,228	5,84	-0,001
373,95	5,94	-0,002
384,665	5,98	-0,003
395,386	5,9	-0,015
406,102	5,5	-0,038
416,811	1,92	-0,222
427,509	-5,2	-1,128
438,224	-9,1	-1,633
448,927	-12,92	-2,025
459,643	-14,66	-2,217
470,364	-18,22	-2,544
481,08	-18,28	-2,575
491,795	-17,38	-2,54
502,534	-18,94	-2,696
513,25	-19,62	-2,729
523,977	-19,04	-2,567
534,711	-15,44	-2,385
545,438	-16,18	-2,34
556,171	-14,3	-2,223
566,887	-13,56	-2,18
577,602	-20,6	-2,78
588,323	-22,68	-3,046
599,045	-24,98	-3,488
609,784	-24,92	-3,498
620,506	-24,86	-3,497
631,245	-24,84	-3,494
641,984	-24,44	-3,49
652,742	-24,62	-3,482
663,469	-23,2	-3,436
674,197	-22,82	-3,437
684,918	-23,36	-3,436
695,645	-23,4	-3,438
706,367	-23,38	-3,44
717,106	-23,88	-3,464
727,81	-23,94	-3,471
738,531	-24,14	-3,48
749,276	-23,96	-3,475
760,004	-24,02	-3,472
770,743	-24,36	-3,487
781,476	-24,26	-3,478
792,186	-23,24	-3,456
802,913	-22,66	-3,425
813,629	-21,4	-3,389
824,362	-23	-3,44
835,089	-23	-3,426
845,823	-21,34	-3,402
856,556	-19,8	-3,339
867,284	-18,66	-3,258
878,023	-18,52	-3,249
888,732	-14,74	-2,939
899,466	-14,5	-2,806
910,205	-15	-2,88
920,92	-16,62	-3,109
931,66	-19,6	-3,356
942,399	-22,6	-3,439
953,145	-23,64	-3,472
963,884	-23,98	-3,49
974,617	-24	-3,496
985,363	-24,1	-3,497
996,114	-23,86	-3,498
1006,872	-23,74	-3,5
1017,593	-23,78	-3,498
1028,326	-23,7	-3,499
1039,078	-23,62	-3,499
1049,799	-23,6	-3,499
1060,539	-23,62	-3,5
1071,266	-23,48	-3,222
1081,975	-22,52	-3,137
1092,715	-19,2	-2,776
1103,442	-14,82	-2,429
1114,157	-15,3	-2,481
1124,885	-12,48	-2,184
1135,606	-10,5	-2,023
1146,328	-6,54	-1,668
1157,049	-6,7	-1,659
1167,794	-5,96	-1,534
1178,552	-5,34	-1,451
1189,303	-6,06	-1,494
1200,049	-5,62	-1,475
1210,806	-4,74	-1,451
1221,551	-6,64	-1,678
1232,297	-5,74	-1,537
1243,048	-7,26	-1,73
1253,781	-6,94	-1,819
1264,515	-9,78	-2,057
1275,266	-11,42	-2,276
1285,994	-14,1	-2,464
1296,721	-12,28	-2,441
1307,454	-9,7	-2,075
1318,218	-4,34	-1,53
1328,945	-1,76	-1,088
1339,679	0,14	-0,87
1350,388	1,36	-0,612
1361,133	4,62	-0,135
1371,855	6,98	-0,022
1382,582	7,24	-0,003
1393,327	7,18	0
1404,073	4,24	-0,632
1414,818	-1,5	-1,367
1425,558	-4,36	-1,908
1436,297	-5,94	-2,098
1447,036	-8	-2,373
1457,782	-10,22	-2,736
1468,509	-14,2	-3,165
1479,243	-15,6	-3,323
1489,97	-18,56	-3,454
1500,703	-18,88	-3,483
1511,431	-19,08	-3,489
1522,17	-19,06	-3,493
1532,886	-19,02	-3,493
1543,607	-18,94	-3,494
1554,34	-18,82	-3,496
1565,08	-18,72	-3,497
1575,819	-18,66	-3,498
1586,534	-18,6	-3,498
1597,292	-18,48	-3,499
1608,007	-18,3	-3,499
1618,741	-18,24	-3,5
1629,474	-18,16	-3,496
1640,213	-18,14	-3,5
1650,953	-18,08	-3,48
1661,68	-17,64	-3,227
1672,408	-14,62	-2,839
1683,147	-9,78	-2,374
1693,886	-6,72	-1,895
1704,638	-1,94	-1,344
1715,371	1,22	-0,72
1726,116	5,34	-0,123
1736,85	6,88	-0,03
1747,589	7,12	-0,017
1758,341	7,24	-0,003
1769,068	7,2	-0,001
1779,819	6,56	-0,331
1790,547	4,74	-0,611
1801,298	0,48	-1,149
1812,05	-3,18	-1,728
1822,777	-4,4	-2
1833,51	-6,7	-2,437
1844,256	-9,48	-2,844
1855,013	-13,94	-3,346
1865,734	-16,26	-3,448
1876,468	-17,14	-3,489
1887,201	-17,16	-3,498
1897,947	-17,1	-3,499
1908,686	-17	-3,5
1919,425	-16,5	-3,15
1930,147	-13,36	-2,852
1940,874	-9,3	-2,41
1951,602	-6,62	-2,061
1962,317	-5,3	-1,954
1973,056	-3,48	-1,658
1983,814	-0,48	-1,038
1994,547	2,08	-0,581
2005,287	2,8	-0,428
2016,02	3,94	-0,262
2026,759	5,64	-0,104
2037,481	6,2	-0,067
2048,208	5,72	-0,068
2058,947	6,6	-0,037
2069,669	6,32	-0,048
2080,39	6,84	-0,025
2091,118	6,86	-0,018
2101,857	6,92	-0,014
2112,608	7	-0,007
2123,348	6,98	-0,001
2134,081	6,96	-0,001
2144,821	6,92	0
2155,56	6,9	-0,179
2166,275	6,02	-0,445
2177,039	4,4	-0,739
2187,772	0,46	-1,149
2198,535	-1,4	-1,513
2209,269	-3,4	-1,907
2220,02	-6	-2,421
2230,736	-6,68	-2,636
2241,463	-8,52	-2,903
2252,196	-9,66	-3,143
2262,912	-9,68	-3,144
2273,627	-10,06	-3,191
2284,361	-13,02	-3,406
2295,1	-13,86	-3,451
2305,803	-14,12	-3,469
2316,525	-14,24	-3,487
2327,234	-14,36	-3,488
2337,949	-14,2	-3,489
2348,677	-14,24	-3,492
2359,41	-14,26	-3,497
2370,144	-14,18	-3,498
2380,865	-14,1	-3,498
2391,58	-14,02	-3,499
2402,314	-14	-3,498
2413,035	-13,94	-3,495
2423,751	-13,86	-3,494
2434,484	-13,82	-3,494
2445,205	-13,76	-3,493
2455,921	-13,7	-3,49
2466,654	-13,66	-3,491
2477,382	-13,64	-3,492
2488,109	-13,54	-3,488
2498,836	-13,38	-3,479
2509,576	-13,42	-3,484
2520,291	-13,3	-3,485
2531,006	-13,5	-3,494
2541,746	-13,42	-3,488
2552,473	-13,42	-3,492
2563,189	-12,86	-3,465
2573,91	-10,74	-3,373
2584,643	-9,88	-3,323
2595,365	-8,14	-3,021
2606,098	-6,76	-2,782
2616,808	-7,74	-3,029
2627,529	-9,36	-3,237
2638,268	-10,36	-3,347
2648,984	-10,56	-3,364
2659,705	-11,92	-3,438
2670,451	-12,5	-3,473
2681,184	-12,28	-3,455
2691,917	-10,64	-3,376
2702,639	-8,32	-3,191
2713,36	-6,72	-2,872
2724,105	-5,24	-2,661
2734,851	-5,72	-2,604
2745,578	-6,24	-2,772
2756,324	-5,62	-2,641
2767,069	-7,36	-2,92
2777,796	-9,26	-3,299
2788,524	-10,96	-3,376
2799,269	-11,34	-3,418
2810,003	-11,56	-3,414
2820,73	-10,66	-3,382
2831,469	-9,58	-3,326
2842,197	-7,86	-3,098
2852,924	-7,44	-2,984
2863,651	-7,16	-2,987
2874,385	-7,5	-2,986
2885,118	-7,46	-2,976
2895,84	-6,46	-2,821
2906,561	-5,2	-2,602
2917,3	-4,66	-2,436
2928,052	-3,86	-2,341
2938,767	-3,18	-2,16
2949,495	-4,78	-2,449
2960,216	-5,5	-2,65
2970,961	-7,18	-2,966
2981,701	-7,48	-3,054
2992,434	-8,28	-3,204
3003,161	-8,44	-3,229
3013,925	-9,06	-3,37
3024,646	-9,62	-3,382
3035,362	-8,68	-3,277
3046,065	-7,56	-3,147
3056,816	-7,52	-3,068
3067,538	-6,44	-2,902
3078,253	-6,02	-2,866
3088,975	-6,08	-2,907
3099,708	-5,44	-2,69
3110,447	-4,68	-2,566
3121,181	-4,26	-2,476
3131,914	-4,44	-2,465
3142,642	-4,84	-2,532
3153,375	-4,5	-2,5
3164,132	-5,56	-2,762
3174,878	-5,82	-2,808
3185,617	-6,74	-3,014
3196,344	-6,84	-3,026
3207,084	-8,28	-3,234
3214,985	6,02	0

File: _4.txt
Time (s)	Load (N)	Displacement (mm)
0	-0,22	-0,027
10,755	2,12	-0,262
21,459	2,76	-0,266
32,162	2,64	-0,288
42,883	2,9	-0,345
53,629	1,26	-0,598
64,344	3	-0,445
75,065	2,64	-0,501
85,781	1,6	-0,588
96,49	2,04	-0,655
107,212	0,36	-0,803
117,927	-1,46	-1,058
128,63	-2,62	-1,148
139,352	-4,44	-1,322
150,079	-7,4	-1,666
160,807	-8,68	-1,881
171,528	-7,48	-1,805
182,249	-6,34	-1,569
192,977	-6,66	-1,63
203,698	-5,26	-1,527
214,425	-0,12	-1,009
225,171	2,78	-0,628
235,91	0,02	-0,898
246,656	2,84	-0,644
257,401	4,4	-0,588
268,128	5,76	-0,295
278,85	6,1	0
289,589	6,2	-0,001
300,328	6,28	-0,002
311,074	6,34	-0,004
321,807	6,38	-0,008
332,553	6,36	-0,012
343,292	5,68	-0,044
354,026	3,24	-0,195
364,765	-0,3	-0,515
375,54	-1,14	-0,704
386,298	-0,56	-0,642
397,067	-2,8	-0,886
407,83	-5,24	-1,149
418,582	-7,08	-1,37
429,339	-11,94	-1,828
440,103	-15,12	-2,194
450,872	-14,3	-2,088
461,635	-17,28	-2,408
472,411	-19,22	-2,657
483,186	-21,1	-2,755
493,979	-21,44	-2,844
504,731	-21,32	-2,827
515,494	-17,38	-2,431
526,282	-14,38	-2,098
537,027	-9,72	-1,712
547,778	-8,42	-1,516
558,524	-8,54	-1,525
569,275	-4,44	-1,116
580,039	-3,4	-0,993
590,814	-2,62	-0,952
601,565	-1,5	-0,844
612,347	1,02	-0,535
623,104	4,04	-0,214
633,903	5,12	-0,115
644,691	7	-0,029
655,454	7,28	-0,014
666,23	7,38	-0,011
677,005	7,46	-0,004
687,78	7,46	-0,002
698,562	7,44	0
709,325	6,5	-0,479
720,094	4,84	-0,645
730,882	3,52	-0,798
741,663	1,74	-0,961
752,445	1,04	-1,026
763,214	0,86	-1,025
773,995	1,82	-0,904
784,765	0,54	-1,073
795,552	-1,62	-1,253
806,334	-4,18	-1,627
817,091	-2,54	-1,417
827,866	-0,84	-1,309
838,636	0,16	-1,149
849,399	0,3	-1,135
860,192	-0,6	-1,19
870,962	2,88	-0,924
881,743	5,26	-0,643
892,531	2,42	-0,85
903,318	4,26	-0,673
914,105	5,26	-0,593
924,875	7,3	-0,347
935,644	7,78	-0,153
946,432	7,84	-0,001
957,225	7,84	-0,001
968,006	7,92	-0,001
978,812	7,96	-0,002
989,599	7,98	-0,006
1000,375	8	-0,004
1011,144	7,96	-0,01
1021,913	7,62	-0,03
1032,695	6,9	-0,052
1043,47	6,36	-0,094
1054,239	7,5	-0,04
1065,009	7,58	-0,03
1075,802	7,48	-0,036
1086,572	7,3	-0,048
1097,335	7,48	-0,043
1108,104	7,62	-0,037
1118,88	7,3	-0,057
1129,667	7,7	-0,032
1140,454	8,04	-0,013
1151,23	8,16	-0,01
1162,005	8,06	-0,013
1172,769	8,1	-0,015
1183,514	7,76	-0,038
1194,289	7,38	-0,056
1205,047	6,88	-0,09
1215,846	6,94	-0,084
1226,628	7,24	-0,07
1237,409	4,12	-0,3
1248,184	2,66	-0,518
1258,978	3,66	-0,314
1269,753	3,64	-0,338
1280,534	3,82	-0,31
1291,316	4,88	-0,199
1302,097	5,16	-0,141
1312,891	6,6	-0,103
1323,678	6,56	-0,064
1334,447	6,68	-0,098
1345,229	6,06	-0,124
1356,004	4,6	-0,231
1366,78	4,18	-0,332
1377,525	3,44	-0,4
1388,3	2,8	-0,4
1399,07	3,04	-0,413
1409,851	4,1	-0,266
1420,627	3,88	-0,317
1431,408	3,34	-0,369
1442,177	2,62	-0,514
1452,977	4,4	-0,276
1463,752	3,26	-0,312
1474,527	3,64	-0,337
1485,321	5,18	-0,161
1496,114	6,28	-0,135
1506,908	6,92	-0,099
1517,695	5,98	-0,136
1528,47	6,24	-0,125
1539,252	7,08	-0,093
1550,021	5,76	-0,146
1560,784	6,08	-0,155
1571,566	5,5	-0,176
1582,341	6,24	-0,116
1593,105	7,74	-0,052
1603,874	7,42	-0,054
1614,643	6,8	-0,092
1625,419	7,48	-0,078
1636,2	7,4	-0,08
1646,976	6,2	-0,118
1657,769	6,08	-0,128
1668,562	7,04	-0,081
1679,338	7,1	-0,1
1690,101	5,46	-0,18
1700,9	3,9	-0,344
1711,688	2,16	-0,52
1722,475	1,66	-0,728
1733,263	0,48	-0,868
1744,086	-0,96	-1,043
1754,855	-3,24	-1,379
1765,649	-1,68	-1,154
1776,448	0,02	-0,882
1787,224	1,3	-0,692
1798,017	3,32	-0,382
1808,81	5,06	-0,248
1819,586	6,98	-0,072
1830,367	8,02	-0,034
1841,118	8,22	-0,027
1851,894	8,22	-0,027
1862,663	8,46	-0,01
1873,433	8,48	-0,006
1884,19	8,44	-0,015
1894,953	8,38	-0,016
1905,711	7,5	-0,072
1916,468	6,68	-0,106
1927,25	7,1	-0,092
1938,019	6,86	-0,082
1948,812	7,28	-0,052
1959,582	8,18	-0,035
1970,363	8,04	-0,043
1981,12	7,52	-0,058
1991,884	6,68	-0,108
2002,659	3,58	-0,434
2013,417	4,88	-0,288
2024,174	4,86	-0,321
2034,937	6,04	-0,158
2045,713	7,78	-0,055
2056,494	8,36	-0,024
2067,252	8,34	-0,028
2078,039	8,18	-0,023
2088,814	8,54	-0,008
2099,602	8,56	-0,002
2110,377	8,54	-0,001
2121,152	8,54	-0,001
2131,91	8,54	-0,001
2142,679	8,54	-0,002
2153,437	8,54	-0,002
2164,206	8,46	-0,001
2174,981	8,46	-0,002
2185,769	8,44	-0,073
2196,532	8,46	0
2207,296	8,46	0
2218,083	6	-0,564
2228,858	3,46	-0,88
2239,622	2,18	-0,994
2250,391	2,14	-1,026
2261,154	1,74	-1,138
2271,924	-0,08	-1,324
2282,687	-1,68	-1,628
2293,469	-2,4	-1,709
2304,232	-3,18	-1,877
2314,983	-4,56	-2,136
2325,759	-8,04	-2,495
2336,51	-9,52	-2,793
2347,28	-14,12	-3,279
2358,025	-16,1	-3,424
2368,794	-17,28	-3,458
2379,552	-16,58	-3,457
2390,333	-17,9	-3,491
2401,09	-17,84	-3,498
2411,866	-17,8	-3,499
2422,635	-17,74	-3,498
2433,417	-17,68	-3,499
2444,18	-17,64	-3,499
2454,949	-17,6	-3,498
2465,743	-17,52	-3,499
2476,512	-17,44	-3,5
2487,27	-17,38	-3,5
2498,045	-17,28	-3,486
2508,826	-15,52	-3,044
2519,596	-13,48	-2,838
2530,365	-13,76	-2,928
2541,17	-8,46	-2,363
2551,94	-7,18	-2,078
2562,721	-2,94	-1,603
2573,503	-0,66	-1,237
2584,296	-0,2	-1,084
2595,053	0,86	-0,922
2605,841	1,54	-0,868
2616,61	1,18	-0,838
2627,416	3,44	-0,525
2638,173	4,9	-0,236
2648,942	7,26	-0,064
2659,724	6,1	-0,132
2670,481	6,48	-0,118
2681,274	3,9	-0,458
2692,056	2	-0,79
2702,819	2,12	-0,694
2713,589	3,62	-0,38
2724,358	5,02	-0,215
2735,133	7,18	-0,076
2745,885	8,26	-0,014
2756,654	8,36	-0,004
2767,436	8,32	-0,001
2778,211	8,28	0
2788,998	7,98	-0,31
2799,786	7,92	-0,262
2810,555	8	-0,341
2821,312	6,32	-0,554
2832,118	4,08	-0,862
2842,899	3,3	-0,963
2853,675	0,9	-1,27
2864,45	0,92	-1,262
2875,207	-0,24	-1,425
2885,983	-2,1	-1,78
2896,776	-2,54	-1,941
2907,551	-4,84	-2,263
2918,333	-6,02	-2,476
2929,126	-6,96	-2,656
2939,926	-10,44	-3,164
2950,719	-11,32	-3,289
2961,494	-13,28	-3,353
2972,264	-11,1	-3,208
2983,027	-10,78	-3,278
2993,797	-12,04	-3,311
3004,572	-12,8	-3,347
3015,359	-14,34	-3,436
3026,129	-14,78	-3,459
3036,904	-15,1	-3,47
3047,68	-15,04	-3,468
3058,461	-15,16	-3,474
3069,248	-15,34	-3,48
3080,036	-15,52	-3,493
3090,817	-15,3	-3,484
3101,58	-15,38	-3,49
3112,386	-15,42	-3,498
3123,161	-15,4	-3,498
3133,937	-15,34	-3,498
3144,706	-15,3	-3,498
3155,469	-15,28	-3,498
3166,245	-15,24	-3,498
3177,014	-15,22	-3,498
3187,789	-15,18	-3,498
3198,571	-15,16	-3,498
3209,352	-15,1	-3,495
3220,134	-15,08	-3,496
3227,789	8,12	0