Folder: Data-filter--cyclical-tests-BEPE-project-/ensaios_Ciclicos/_50perc/_4gap/entrada

Note: README.md
# Data filter (cyclical tests BEPE project)
python aplication to treat data get by fatigue testing machine

File: _2.txt
Time (s)	Load (N)	Displacement (mm)
0	0	-0,03
10,953	0	-0,67
21,734	1	-0,426
32,528	2	0
43,321	2,5	-0,001
54,097	2,5	-0,004
64,92	3	-0,003
75,731	3	-0,002
86,537	3	-0,002
97,342	3	-0,001
108,196	3	-0,055
119,013	3	-0,107
129,836	3,5	-0,124
140,696	3	-0,338
151,531	3	-0,476
162,36	1,5	-0,655
173,184	1	-0,78
184,025	0	-0,869
194,861	1,5	-0,741
205,72	0,5	-0,877
216,555	0	-1,116
227,391	0	-1,08
238,22	0,5	-0,911
249,086	0	-0,945
259,921	0,5	-0,827
270,775	0	-0,95
281,628	0,5	-0,901
292,475	2	-0,743
303,322	0	-0,989
314,158	-0,5	-1,148
325,017	-3	-1,587
335,858	-4,5	-1,936
346,694	-5,5	-2,341
357,535	-7,5	-2,605
368,395	-9,5	-2,883
379,236	-11	-3,116
390,071	-9,5	-3,026
400,901	-9,5	-2,952
411,712	-10	-2,95
422,548	-11	-3,238
433,383	-14	-3,432
444,23	-15	-3,48
455,066	-15	-3,479
465,889	-15	-3,482
476,706	-15	-3,484
487,536	-15	-3,492
498,365	-15	-3,496
509,207	-15	-3,499
520,048	-15	-3,499
530,883	-14,5	-3,35
541,725	-13,5	-3,067
552,554	-11	-2,778
563,39	-8	-2,363
574,249	-5	-1,967
585,096	-4	-1,635
595,92	-1,5	-1,276
606,737	0	-0,893
617,56	1,5	-0,495
628,378	2,5	-0,289
639,177	2,5	-0,244
650,008	3,5	-0,11
660,824	4	-0,091
671,647	4,5	-0,046
682,465	4,5	-0,031
693,288	4,5	-0,029
704,105	4	-0,031
714,923	4,5	-0,026
725,74	4,5	-0,03
736,546	4,5	-0,019
747,375	4,5	-0,008
758,204	4,5	-0,007
769,022	4,5	-0,004
779,827	5	-0,002
790,632	4,5	-0,002
801,462	4,5	-0,002
812,285	4,5	-0,001
823,103	5	-0,014
833,914	5	0
844,731	4,5	-0,049
855,555	4,5	-0,135
866,378	4,5	-0,234
877,202	4,5	-0,239
888,037	5	-0,21
898,854	4,5	-0,352
909,666	4	-0,44
920,489	2	-0,822
931,3	0,5	-1,052
942,13	-1,5	-1,656
952,947	-2	-1,725
963,759	-2,5	-1,892
974,588	-3	-2,096
985,405	-4	-2,207
996,211	-3,5	-2,159
1007,028	-4,5	-2,382
1017,846	-6	-2,719
1028,657	-6,5	-2,805
1039,462	-7	-2,916
1050,268	-8	-3,068
1061,079	-9	-3,242
1071,897	-11	-3,406
1082,702	-11,5	-3,42
1093,537	-11,5	-3,431
1104,355	-12	-3,45
1115,16	-12,5	-3,476
1125,977	-12	-3,466
1136,795	-12,5	-3,486
1147,612	-12,5	-3,492
1158,417	-12,5	-3,496
1169,235	-12,5	-3,499
1180,034	-12,5	-3,5
1190,846	-12,5	-3,499
1201,657	-12,5	-3,499
1212,468	-12,5	-3,435
1223,28	-12,5	-3,5
1234,097	-12	-3,497
1244,921	-12	-3,5
1255,732	-12	-3,497
1266,549	-12	-3,478
1277,367	-8,5	-3,193
1288,19	-5	-2,57
1299,008	-2,5	-1,965
1309,819	-3	-2,151
1320,624	-3,5	-2,262
1331,424	-2,5	-2,002
1342,223	0	-1,451
1353,016	4	-0,549
1363,822	5	-0,203
1374,639	5	0
1385,439	5	-0,002
1396,256	5	-0,004
1407,049	5	-0,002
1417,867	5	-0,001
1428,678	5	-0,001
1439,477	5,5	-0,002
1450,277	5	-0,002
1461,082	5	-0,005
1471,9	5	-0,005
1482,699	5	-0,007
1493,504	4,5	-0,06
1504,304	4	-0,145
1515,121	4	-0,122
1525,933	3	-0,405
1536,732	1,5	-0,698
1547,537	0	-1,204
1558,349	-2	-1,893
1569,166	-5	-2,53
1579,977	-9	-3,221
1590,783	-9	-3,499
1601,588	-9	-3,492
1612,394	-8	-3,417
1623,193	-5,5	-3,202
1633,992	-5	-2,99
1644,798	-5	-2,893
1655,603	-4	-2,659
1666,414	-3	-2,401
1677,244	-1,5	-1,924
1688,055	0	-1,362
1698,861	2	-0,936
1709,66	4	-0,517
1720,471	4,5	-0,338
1731,271	5	-0,011
1742,088	5	-0,001
1752,882	5	-0,003
1763,687	5	-0,004
1774,492	5	-0,006
1785,298	5	-0,013
1796,097	5	-0,018
1806,902	5	-0,022
1817,708	5	-0,012
1828,519	5	-0,01
1839,319	4,5	-0,008
1850,124	5	-0,005
1860,929	5	-0,006
1871,741	5	-0,003
1882,534	5	-0,002
1893,333	5	-0,002
1904,139	5	-0,004
1914,938	5	-0,004
1925,732	5	-0,004
1936,543	5	-0,004
1947,348	5	-0,004
1958,148	4,5	-0,002
1968,941	5	-0,002
1979,741	5	-0,001
1990,54	5	-0,001
2001,369	4,5	0
2012,169	5	-0,009
2022,974	5	-0,227
2033,779	4,5	-0,377
2044,585	4,5	-0,381
2055,39	4,5	-0,3
2066,178	4,5	-0,31
2076,977	4,5	-0,401
2087,794	4,5	-0,38
2098,6	4,5	-0,427
2109,387	4	-0,336
2120,193	4	-0,536
2130,986	3	-0,705
2141,791	1,5	-0,965
2152,591	1	-1,109
2163,384	0,5	-1,137
2174,183	1	-1,128
2184,983	1	-1,123
2195,794	0	-1,482
2206,588	-0,5	-1,756
2217,387	-1	-1,991
2228,204	-1,5	-2,197
2238,998	-2	-2,232
2249,791	-2	-2,352
2260,585	-2,5	-2,435
2271,384	-2,5	-2,542
2282,189	-3	-2,722
2292,989	-2,5	-2,653
2303,794	-3,5	-2,833
2314,605	-4	-3,106
2325,399	-4	-3,125
2336,198	-4,5	-3,279
2346,986	-4,5	-3,279
2357,773	-5	-3,33
2368,578	-5,5	-3,421
2379,372	-6	-3,445
2390,171	-6	-3,475
2400,964	-6	-3,483
2411,764	-6	-3,492
2422,569	-6	-3,498
2433,369	-6	-3,499
2444,162	-6	-3,499
2454,961	-5,5	-3,48
2465,761	-5,5	-3,242
2476,566	-5	-3,145
2487,366	-4	-2,967
2498,165	-4	-2,903
2508,976	-2,5	-2,581
2519,776	-3	-2,559
2530,587	-1	-2,142
2541,393	-0,5	-1,841
2552,192	0	-1,605
2562,991	0,5	-1,137
2573,791	1	-0,833
2584,584	2	-0,453
2595,371	2	-0,252
2606,177	3,5	-0,102
2616,97	4	-0,045
2627,764	4	-0,02
2638,557	4,5	-0,01
2649,356	4,5	-0,003
2660,156	4,5	-0,001
2670,943	4	-0,001
2681,742	4	-0,063
2692,554	4	-0,257
2703,347	3,5	-0,405
2714,147	2	-0,784
2724,958	1,5	-1,021
2735,757	0	-1,426
2746,557	0	-1,622
2757,356	-0,5	-1,99
2768,144	-0,5	-2,107
2778,937	-1	-2,216
2789,73	-1,5	-2,467
2800,53	-1,5	-2,639
2811,329	-2,5	-2,99
2822,116	-2,5	-3,117
2832,91	-3	-3,276
2843,721	-4,5	-3,414
2854,521	-4,5	-3,455
2865,326	-5	-3,472
2876,131	-4,5	-3,478
2886,925	-5	-3,486
2897,73	-5	-3,489
2908,523	-5	-3,494
2919,323	-5	-3,496
2930,116	-5	-3,498
2940,91	-4,5	-3,498
2951,709	-4,5	-3,499
2962,508	-4,5	-3,415
2973,296	-4,5	-3,266
2984,083	-4	-3,092
2994,883	-2,5	-2,794
3005,682	-2,5	-2,77
3016,487	-2,5	-2,846
3027,281	-2,5	-2,739
3038,08	-2	-2,652
3048,879	-2	-2,497
3059,655	-1,5	-2,435
3070,454	-1	-2,212
3081,242	-1	-2,206
3092,029	-0,5	-2,138
3102,81	-0,5	-2,01
3113,616	-0,5	-1,974
3124,397	-0,5	-2,014
3135,191	0	-1,725
3145,984	0	-1,616
3156,795	0	-1,545
3167,589	0	-1,368
3178,388	0	-1,433
3189,247	0,5	-1,065
3200,053	0,5	-1,045
3210,84	0,5	-1,233
3221,64	0	-1,29
3232,427	0	-1,418
3239,543	4	0

File: _3.txt
Time (s)	Load (N)	Displacement (mm)
0	0	-0,026
10,701	0,5	-0,342
21,357	0,5	-0,318
32,012	0	-0,478
42,667	-0,5	-0,7
53,341	-2,5	-1,033
64,008	-3,5	-1,214
74,705	-3,5	-1,449
85,373	-4	-1,46
96,034	-3	-1,286
106,714	-3	-1,229
117,381	-1,5	-0,995
128,048	-2,5	-1,139
138,716	-3	-1,363
149,389	-4	-1,542
160,063	-5,5	-1,965
170,73	-8	-2,406
181,397	-9	-2,651
192,053	-9,5	-2,75
202,726	-11,5	-3,034
213,393	-12	-3,184
224,055	-14	-3,362
234,728	-14,5	-3,393
245,402	-14,5	-3,415
256,099	-15,5	-3,476
266,796	-15,5	-3,492
277,47	-15,5	-3,493
288,131	-15,5	-3,496
298,805	-15,5	-3,496
309,502	-15,5	-3,498
320,187	-15,5	-3,499
330,849	-15,5	-3,499
341,516	-15	-3,5
352,19	-15	-3,5
362,857	-15	-3,499
373,548	-15	-3,499
384,234	-15	-3,5
394,919	-15	-3,5
405,61	-15	-3,499
416,302	-15	-3,5
426,993	-15	-3,5
437,703	-15	-3,226
448,37	-14,5	-3,115
459,055	-15	-3,332
469,747	-14	-3,083
480,438	-12,5	-2,888
491,124	-11,5	-2,798
501,809	-11,5	-2,788
512,494	-11,5	-2,74
523,18	-10	-2,645
533,853	-10	-2,583
544,545	-9	-2,532
555,248	-5,5	-2,039
565,939	-5	-1,914
576,631	-4,5	-1,714
587,31	-3	-1,429
598,013	-2,5	-1,31
608,711	-1,5	-1,058
619,396	-0,5	-0,878
630,094	0	-0,567
640,773	1	-0,322
651,458	0	-0,344
662,132	1,5	-0,174
672,829	1,5	-0,11
683,509	2	-0,055
694,182	1,5	-0,09
704,843	1,5	-0,116
715,511	1,5	-0,167
726,196	1,5	-0,141
736,888	0,5	-0,288
747,597	0,5	-0,401
758,282	0	-0,614
768,974	-0,5	-0,771
779,647	0	-0,73
790,332	-0,5	-0,874
801,036	-0,5	-0,736
811,733	-1	-0,921
822,431	-1	-0,964
833,134	-1	-1,033
843,837	-1	-1,05
854,541	-0,5	-0,918
865,232	-1	-1,058
875,924	-1	-0,996
886,645	-0,5	-0,902
897,342	0	-0,795
908,028	0	-0,609
918,743	0,5	-0,348
929,428	0,5	-0,281
940,126	1,5	-0,118
950,823	2,5	-0,047
961,515	2,5	-0,028
972,218	2,5	-0,024
982,909	2,5	-0,039
993,607	2,5	-0,019
1004,286	3	-0,027
1014,984	3	-0,015
1025,675	3	-0,018
1036,366	3	-0,014
1047,052	3	-0,018
1057,743	3	-0,017
1068,441	3	-0,012
1079,15	3	-0,007
1089,835	2,5	-0,004
1100,521	3	-0,003
1111,206	3	-0,003
1121,903	3	-0,002
1132,583	3	-0,004
1143,28	3	-0,004
1153,984	3	-0,003
1164,681	3	-0,002
1175,372	3	-0,002
1186,07	3	-0,001
1196,767	3	-0,001
1207,453	3	-0,001
1218,15	3	-0,002
1228,835	3	-0,001
1239,515	3	-0,001
1250,218	2,5	0
1260,916	3	-0,001
1271,613	3	-0,001
1282,316	3	-0,001
1293,014	3	-0,084
1303,705	2	-0,57
1314,402	0	-1,002
1325,088	-1	-1,422
1335,785	-3	-2,072
1346,471	-5	-2,532
1357,162	-5,5	-2,718
1367,853	-7	-2,976
1378,551	-7,5	-3,093
1389,248	-10,5	-3,406
1399,94	-10,5	-3,431
1410,631	-12	-3,482
1421,322	-12	-3,495
1432,008	-12	-3,497
1442,699	-11,5	-3,495
1453,39	-11,5	-3,494
1464,082	-11,5	-3,494
1474,773	-11,5	-3,494
1485,477	-11,5	-3,497
1496,18	-11,5	-3,496
1506,871	-11,5	-3,494
1517,575	-11,5	-3,492
1528,272	-11,5	-3,48
1538,964	-10,5	-3,464
1549,673	-10	-3,442
1560,376	-10	-3,429
1571,074	-9,5	-3,375
1581,753	-7,5	-3,224
1592,469	-7,5	-3,184
1603,166	-7	-3,179
1613,869	-6	-3,03
1624,555	-5	-2,78
1635,252	-4,5	-2,573
1645,962	-4	-2,539
1656,671	-4,5	-2,509
1667,374	-3	-2,221
1678,072	-3	-2,202
1688,769	-3	-2,096
1699,455	-2	-1,899
1710,152	-1	-1,762
1720,843	-1	-1,675
1731,541	-1,5	-1,847
1742,244	-2	-1,876
1752,935	-1	-1,541
1763,639	-0,5	-1,295
1774,336	0	-0,859
1785,04	3	-0,206
1795,725	3	-0,001
1806,428	3	-0,005
1817,132	3	-0,012
1827,841	2,5	-0,052
1838,527	1,5	-0,239
1849,224	0	-0,769
1859,915	0	-0,959
1870,607	0	-1,119
1881,322	0	-1,3
1892,001	-1	-1,675
1902,693	-1,5	-2,087
1913,378	-4,5	-2,704
1924,064	-7,5	-3,114
1934,761	-8	-3,47
1945,458	-8	-3,5
1956,138	-8	-3,498
1966,829	-8	-3,497
1977,521	-7,5	-3,498
1988,224	-7,5	-3,497
1998,921	-7,5	-3,496
2009,607	-7,5	-3,485
2020,304	-7,5	-3,475
2030,996	-7	-3,457
2041,675	-5,5	-3,386
2052,396	-4	-3,012
2063,076	-3	-2,726
2073,773	-2	-2,33
2084,453	-1,5	-2,138
2095,144	-1	-1,832
2105,829	-1	-1,876
2116,515	-0,5	-1,545
2127,2	0	-1,195
2137,898	0	-1,184
2148,583	-0,5	-1,557
2159,256	-1	-1,863
2169,954	-2	-2,278
2180,657	-3	-2,821
2191,348	-4,5	-3,248
2202,04	-5,5	-3,355
2212,749	-6	-3,457
2223,441	-6	-3,486
2234,144	-6	-3,495
2244,835	-6	-3,498
2255,533	-6	-3,491
2266,224	-6,5	-3,232
2276,927	-5,5	-3,025
2287,625	-3,5	-2,757
2298,328	-1,5	-2,333
2309,02	-1,5	-2,175
2319,729	-0,5	-1,769
2330,421	0	-1,288
2341,118	0	-0,888
2351,809	0,5	-0,619
2362,501	1	-0,403
2373,21	1,5	-0,139
2383,907	2	-0,07
2394,593	2,5	-0,042
2405,278	2,5	-0,027
2415,988	2,5	-0,012
2426,685	2,5	-0,006
2437,376	2,5	-0,001
2448,068	2,5	-0,092
2458,753	2	-0,495
2469,451	0	-0,898
2480,142	0	-1,095
2490,821	0	-1,271
2501,513	0	-1,463
2512,216	-0,5	-1,783
2522,919	-1	-2,23
2533,599	-1,5	-2,513
2544,29	-1,5	-2,691
2554,988	-2,5	-2,841
2565,685	-3,5	-3,255
2576,388	-5	-3,452
2587,074	-5,5	-3,482
2597,765	-5,5	-3,492
2608,469	-5,5	-3,498
2619,148	-5,5	-3,499
2629,851	-4,5	-3,115
2640,549	-2,5	-2,825
2651,216	-3	-2,772
2661,908	-1,5	-2,359
2672,599	-1	-2,138
2683,302	-0,5	-1,899
2693,988	0	-1,454
2704,679	0	-1,09
2715,37	0,5	-0,708
2726,05	0,5	-0,596
2736,747	1	-0,456
2747,451	0,5	-0,494
2758,142	0,5	-0,624
2768,833	0,5	-0,58
2779,531	1	-0,39
2790,222	1,5	-0,079
2800,914	2	-0,042
2811,599	2,5	-0,02
2822,29	2,5	-0,012
2832,994	2,5	-0,018
2843,685	2,5	-0,014
2854,376	2,5	-0,026
2865,074	2,5	-0,019
2875,765	2,5	-0,016
2886,475	2,5	-0,012
2897,172	2,5	-0,005
2907,863	2,5	-0,003
2918,549	2,5	-0,006
2929,234	2,5	-0,006
2939,92	2,5	-0,009
2950,629	2,5	-0,002
2961,32	2,5	-0,001
2972,018	2,5	0
2982,709	2,5	-0,048
2993,401	2,5	-0,155
3004,092	2	-0,298
3014,783	1,5	-0,436
3025,481	1,5	-0,393
3036,16	1,5	-0,309
3046,858	2	-0,39
3057,561	0,5	-0,612
3068,24	0,5	-0,701
3078,932	0	-0,778
3089,629	0	-0,922
3100,326	0	-1,466
3111,024	0	-1,546
3121,715	-0,5	-1,837
3132,407	-0,5	-2,164
3143,098	-1	-2,523
3153,789	-1,5	-2,697
3164,487	-1	-2,592
3175,178	-1,5	-2,786
3185,882	-1,5	-2,929
3196,573	-2,5	-3,144
3202,327	2	0

File: _4.txt
Time (s)	Load (N)	Displacement (mm)
0	0	-0,036
10,625	0,5	-0,001
21,19	1	-0,009
31,768	1	-0,02
42,363	0,5	-0,075
52,959	0,5	-0,11
63,524	0	-0,238
74,107	0	-0,242
84,709	1	-0,094
95,31	1	-0,037
105,882	1	-0,038
116,489	1,5	-0,023
127,084	1,5	-0,012
137,686	1,5	-0,008
148,275	2	-0,005
158,858	1,5	-0,002
169,46	1,5	-0,001
180,061	1,5	-0,09
190,645	1	-0,265
201,228	1,5	-0,201
211,836	1,5	-0,214
222,443	1,5	-0,138
233,044	1,5	-0,277
243,652	2	-0,291
254,265	1,5	-0,367
264,878	1,5	-0,374
275,504	0	-0,792
286,105	-1	-0,989
296,719	0	-0,793
307,326	1	-0,572
317,909	0,5	-0,514
328,511	0	-0,71
339,106	-0,5	-0,893
349,708	-1,5	-0,999
360,303	-1,5	-1,08
370,904	-0,5	-0,921
381,488	0,5	-0,591
392,089	1,5	-0,409
402,697	1,5	-0,438
413,298	2	-0,331
423,881	2	-0,173
434,489	2	-0,036
445,09	2	-0,122
455,709	2	-0,09
466,329	1,5	-0,338
476,936	1,5	-0,394
487,544	2	-0,257
498,127	1,5	-0,365
508,729	2	-0,001
519,318	2	-0,001
529,925	2	-0,005
540,521	2	-0,008
551,098	2	-0,004
561,747	2	0
572,367	2,5	-0,266
582,956	1,5	-0,36
593,582	0	-0,716
604,207	-1,5	-1,15
614,839	-2,5	-1,559
625,452	-4	-1,9
636,047	-3,5	-1,86
646,655	-4	-1,985
657,256	-4	-2,032
667,851	-4,5	-2,103
678,447	-5,5	-2,301
689,054	-6,5	-2,612
699,65	-7,5	-2,752
710,233	-8,5	-2,991
720,834	-9	-3,071
731,448	-10	-3,194
742,043	-11,5	-3,334
752,645	-13	-3,415
763,252	-12,5	-3,426
773,865	-13	-3,439
784,473	-13	-3,462
795,062	-13,5	-3,464
805,664	-13	-3,462
816,271	-13,5	-3,479
826,884	-13,5	-3,491
837,468	-13,5	-3,491
848,075	-13,5	-3,494
858,658	-13,5	-3,495
869,272	-13,5	-3,497
879,873	-13,5	-3,498
890,481	-13,5	-3,498
901,07	-13,5	-3,499
911,677	-13,5	-3,471
922,273	-13	-3,186
932,856	-11,5	-2,972
943,452	-10,5	-2,901
954,041	-13	-3,433
964,66	-12	-3,042
975,262	-12,5	-3,102
985,857	-12,5	-3,074
996,465	-13	-3,13
1007,06	-13,5	-3,497
1017,661	-13	-3,5
1028,251	-13	-3,499
1038,834	-13	-3,499
1049,43	-13	-3,5
1060,025	-13	-3,5
1070,62	-13	-3,499
1081,21	-13	-3,499
1091,811	-13	-3,498
1102,407	-13	-3,498
1112,99	-12,5	-3,496
1123,573	-12	-3,463
1134,181	-12,5	-3,479
1144,788	-12,5	-3,485
1155,378	-12	-3,475
1165,985	-12	-3,447
1176,592	-12	-3,462
1187,194	-12	-3,479
1197,783	-12	-3,478
1208,378	-12	-3,488
1218,974	-12	-3,475
1229,575	-11,5	-3,459
1240,183	-12	-3,482
1250,784	-11,5	-3,477
1261,385	-11	-3,438
1271,993	-9,5	-3,356
1282,588	-9,5	-3,336
1293,19	-9,5	-3,33
1303,797	-8	-3,24
1314,398	-7,5	-3,169
1325	-7,5	-3,201
1335,595	-6,5	-2,932
1346,203	-6	-2,897
1356,804	-6,5	-2,933
1367,405	-5,5	-2,684
1378,013	-5,5	-2,819
1388,614	-5	-2,712
1399,216	-5	-2,756
1409,817	-4,5	-2,538
1420,406	-3,5	-2,252
1431,002	-2,5	-2,026
1441,597	-2,5	-1,794
1452,193	-1	-1,465
1462,8	-0,5	-1,304
1473,395	-0,5	-1,242
1484,003	-0,5	-1,256
1494,592	0	-0,945
1505,206	0	-0,802
1515,801	0,5	-0,663
1526,402	0	-0,712
1537,004	1,5	-0,436
1547,617	2,5	0
1558,213	2,5	-0,001
1568,808	2,5	-0,001
1579,397	2,5	-0,002
1589,999	2,5	-0,002
1600,588	2,5	-0,002
1611,189	2,5	-0,004
1621,773	2,5	-0,007
1632,368	3	-0,007
1642,958	2,5	-0,011
1653,565	2,5	-0,013
1664,166	2,5	-0,018
1674,762	2	-0,029
1685,357	2	-0,032
1695,965	2	-0,045
1706,554	2,5	-0,037
1717,161	2,5	-0,028
1727,763	2,5	-0,023
1738,364	2,5	-0,008
1748,966	2,5	-0,004
1759,567	2,5	-0,003
1770,168	2,5	-0,002
1780,764	2,5	-0,001
1791,359	2,5	-0,001
1801,949	2,5	-0,001
1812,55	2,5	-0,012
1823,139	2,5	-0,103
1833,747	2,5	-0,212
1844,348	2,5	-0,33
1854,938	2,5	-0,242
1865,533	2	-0,32
1876,134	2	-0,298
1886,736	2	-0,373
1897,343	2	-0,445
1907,951	1	-0,602
1918,552	0	-0,731
1929,147	2	-0,418
1939,743	2	-0,344
1950,344	2	-0,435
1960,945	2	-0,305
1971,541	3	-0,269
1982,142	2,5	-0,224
1992,744	2,5	-0,157
2003,345	3	-0,015
2013,946	2,5	0
2024,548	2,5	0
2035,161	2,5	-0,001
2045,775	2,5	-0,053
2056,382	2	-0,288
2066,983	2,5	-0,283
2077,573	2,5	-0,314
2088,18	2,5	-0,196
2098,788	2,5	-0,212
2109,383	2,5	-0,019
2119,99	2,5	-0,142
2130,592	2,5	-0,159
2141,193	2	-0,318
2151,795	0,5	-0,638
2162,396	1	-0,61
2172,985	0	-0,96
2183,587	0	-1,091
2194,182	0	-0,966
2204,784	0	-1,024
2215,379	0	-1,032
2225,98	0	-1,073
2236,582	0	-0,754
2247,201	1	-0,62
2257,779	2	-0,334
2268,368	2	-0,278
2278,975	2	-0,335
2289,559	2,5	-0,17
2300,154	2,5	-0,015
2310,755	2	-0,042
2321,339	2,5	0
2331,928	2,5	0
2342,524	2	-0,006
2353,131	2,5	-0,102
2363,726	2	-0,308
2374,34	2	-0,205
2384,941	2,5	-0,001
2395,543	2	-0,001
2406,156	2,5	-0,002
2416,745	2,5	-0,003
2427,335	2	-0,002
2437,93	2,5	-0,002
2448,52	2,5	-0,002
2459,121	2	-0,002
2469,722	2,5	-0,001
2480,318	2,5	-0,001
2490,919	2	-0,001
2501,533	2	-0,001
2512,128	2	-0,001
2522,729	2,5	-0,001
2533,337	2,5	-0,002
2543,938	2	-0,002
2554,54	2	-0,002
2565,153	2,5	-0,002
2575,748	2	-0,001
2586,35	2	-0,001
2596,951	2,5	-0,002
2607,547	2	-0,001
2618,148	2	-0,003
2628,725	2	-0,005
2639,333	2	-0,006
2649,934	2,5	-0,006
2660,523	2,5	-0,013
2671,119	2	-0,012
2681,72	2	-0,012
2692,31	2	-0,01
2702,899	2	-0,016
2713,5	2	-0,008
2724,078	2	-0,014
2734,649	2	-0,015
2745,245	2	-0,01
2755,846	2,5	-0,005
2766,435	2	-0,007
2777,031	2,5	-0,003
2787,638	2	-0,001
2798,24	2	-0,003
2808,835	2	-0,196
2819,442	2	-0,228
2830,032	1,5	-0,441
2840,628	1,5	-0,517
2851,217	2	-0,402
2861,812	1	-0,533
2872,413	1	-0,565
2883,003	1,5	-0,456
2893,592	1	-0,556
2904,206	0	-0,716
2914,813	0	-0,932
2925,402	0	-0,909
2935,992	0	-0,8
2946,593	0	-1,028
2957,201	0	-1,246
2967,796	0	-1,182
2978,379	0	-1,214
2988,969	0	-1,263
2999,57	0	-1,371
3010,178	0	-1,47
3020,779	0	-1,55
3031,38	-0,5	-1,639
3041,976	0	-1,46
3052,571	0	-1,334
3063,161	0	-1,374
3073,762	0	-1,034
3084,357	0	-1,105
3094,947	0	-1,129
3105,548	0	-1,112
3116,149	0	-1,181
3126,751	0	-1,356
3137,334	0	-1,462
3147,942	0	-1,461
3158,537	0	-1,175
3169,132	0	-0,942
3179,566	2	0