Folder: Data-filter--cyclical-tests-BEPE-project-/ensaios_Ciclicos/com_TC/entrada

Note: README.md
# Data filter (cyclical tests BEPE project)
python aplication to treat data get by fatigue testing machine

File: _2.txt
Time (s)	Load (N)	Displacement (mm)
0	0	-0,036
10,601	1,5	0
21,149	1,5	-0,002
31,702	2	-0,002
42,279	2	-0,003
52,815	2	-0,004
63,38	2	0
73,958	0,5	-0,447
84,518	-1,5	-0,662
95,1	-4,5	-1,131
105,69	-9	-1,511
116,249	-9,5	-1,657
126,803	-8,5	-1,512
137,398	-7	-1,348
147,969	-6	-1,267
158,523	0	-0,605
169,112	2,5	-0,284
179,69	1,5	-0,372
190,255	0,5	-0,496
200,814	1,5	-0,381
211,368	2,5	-0,249
221,945	3	-0,322
232,504	2,5	-0,405
243,076	0	-0,616
253,641	0	-0,574
264,213	-2	-0,748
274,802	-4	-0,975
285,415	-7	-1,433
296,005	-7	-1,41
306,564	-7,5	-1,555
317,172	-8	-1,649
327,761	-9,5	-1,828
338,374	-12,5	-2,233
348,952	-15	-2,474
359,541	-18	-2,69
370,119	-20,5	-2,926
380,72	-24,5	-3,314
391,297	-26,5	-3,384
401,893	-27,5	-3,443
412,452	-28	-3,445
423,03	-28,5	-3,456
433,637	-29	-3,486
444,22	-29	-3,486
454,804	-29	-3,489
465,387	-29	-3,493
475,983	-29,5	-3,495
486,554	-29	-3,493
497,173	-29	-3,496
507,775	-29	-3,497
518,364	-29	-3,497
528,954	-29	-3,497
539,561	-28,5	-3,498
550,168	-29	-3,499
560,764	-28,5	-3,5
571,353	-28,5	-3,499
581,936	-29	-3,499
592,508	-28,5	-3,499
603,091	-28,5	-3,498
613,687	-28,5	-3,498
624,252	-28,5	-3,492
634,829	-28,5	-3,488
645,419	-28,5	-3,492
656,002	-28,5	-3,493
666,58	-28,5	-3,491
677,145	-28	-3,488
687,728	-28	-3,487
698,318	-28	-3,487
708,919	-28	-3,491
719,503	-28	-3,49
730,08	-28	-3,486
740,675	-27,5	-3,48
751,247	-27	-3,466
761,818	-27	-3,453
772,396	-26	-3,428
782,985	-25	-3,4
793,574	-24	-3,379
804,176	-23,5	-3,352
814,753	-24	-3,379
825,355	-25,5	-3,433
835,926	-24	-3,394
846,515	-26	-3,446
857,111	-27	-3,468
867,676	-26,5	-3,458
878,272	-27	-3,486
888,855	-27,5	-3,49
899,432	-27	-3,489
910,016	-27	-3,49
920,593	-26,5	-3,475
931,171	-27	-3,482
941,748	-26	-3,456
952,325	-26	-3,449
962,903	-26	-3,458
973,474	-24,5	-3,446
984,046	-24	-3,417
994,629	-24,5	-3,411
1005,212	-23,5	-3,392
1015,796	-24	-3,376
1026,379	-23,5	-3,354
1036,956	-24,5	-3,392
1047,54	-24,5	-3,401
1058,111	-24	-3,406
1068,701	-23,5	-3,369
1079,284	-21	-3,284
1089,867	-21	-3,295
1100,457	-23,5	-3,379
1111,046	-24	-3,403
1121,612	-25	-3,438
1132,189	-25	-3,429
1142,779	-24	-3,397
1153,362	-24	-3,395
1163,951	-22,5	-3,378
1174,517	-24	-3,398
1185,088	-23,5	-3,37
1195,672	-21	-3,252
1206,237	-17,5	-3,09
1216,82	-20,5	-3,261
1227,398	-22,5	-3,361
1237,981	-24	-3,422
1248,564	-25	-3,442
1259,142	-19,5	-3,275
1269,731	-19,5	-3,236
1280,309	-14,5	-2,786
1290,892	-13	-2,636
1301,469	-13,5	-2,655
1312,059	-13	-2,579
1322,642	-12	-2,462
1333,226	-9	-2,175
1343,815	-6,5	-1,902
1354,386	-5,5	-1,772
1364,976	-7	-1,85
1375,553	-8	-2,012
1386,125	-9	-2,153
1396,702	-9	-2,209
1407,273	-9	-2,151
1417,851	-9	-2,182
1428,422	-10	-2,319
1439	-12	-2,496
1449,571	-14	-2,696
1460,166	-17	-3,07
1470,738	-20	-3,279
1481,315	-21,5	-3,338
1491,899	-22,5	-3,391
1502,482	-22	-3,381
1513,065	-20,5	-3,27
1523,631	-19	-3,14
1534,208	-18,5	-3,142
1544,78	-17	-3,066
1555,363	-19	-3,167
1565,928	-19,5	-3,233
1576,512	-22	-3,374
1587,083	-23,5	-3,418
1597,66	-24	-3,45
1608,238	-24	-3,465
1618,815	-24	-3,46
1629,387	-24	-3,461
1639,964	-24	-3,456
1650,541	-24	-3,466
1661,119	-23	-3,435
1671,69	-22,5	-3,41
1682,268	-22,5	-3,412
1692,839	-23	-3,418
1703,416	-21	-3,375
1714,006	-21,5	-3,422
1724,589	-23,5	-3,446
1735,173	-24	-3,472
1745,756	-24,5	-3,482
1756,333	-24	-3,489
1766,923	-24,5	-3,491
1777,5	-24,5	-3,496
1788,09	-24	-3,498
1798,667	-24	-3,499
1809,238	-24	-3,499
1819,81	-24	-3,461
1830,387	-24	-3,365
1840,977	-22	-3,012
1851,548	-17,5	-2,699
1862,131	-15	-2,498
1872,709	-13,5	-2,384
1883,28	-10	-1,977
1893,864	-8	-1,86
1904,435	-6,5	-1,68
1915,018	-5,5	-1,536
1925,608	-3,5	-1,268
1936,179	-1,5	-0,913
1946,763	-0,5	-0,62
1957,34	0,5	-0,354
1967,911	1	-0,233
1978,483	1,5	-0,202
1989,06	2	-0,135
1999,631	1	-0,192
2010,215	1,5	-0,188
2020,798	3	-0,082
2031,376	3,5	-0,042
2041,941	3,5	-0,03
2052,512	4	-0,015
2063,084	4	-0,005
2073,661	4	-0,004
2084,221	4	-0,004
2094,798	4	-0,001
2105,369	4	-0,042
2115,953	3,5	-0,253
2126,536	0,5	-0,654
2137,114	-1	-0,969
2147,697	-1,5	-1,127
2158,28	-1,5	-1,205
2168,864	-3	-1,437
2179,471	-4	-1,825
2190,043	-5	-2,172
2200,614	-6,5	-2,559
2211,179	-9,5	-3,002
2221,751	-10	-3,052
2232,334	-12	-3,294
2242,918	-13	-3,35
2253,501	-15	-3,453
2264,09	-15	-3,478
2274,68	-15	-3,478
2285,269	-15	-3,482
2295,847	-15	-3,477
2306,406	-15	-3,464
2317,007	-15	-3,477
2327,585	-15	-3,481
2338,162	-14,5	-3,486
2348,734	-14	-3,475
2359,293	-13,5	-3,478
2369,876	-13	-3,476
2380,442	-12,5	-3,476
2391,013	-12,5	-3,487
2401,597	-12	-3,487
2412,168	-12	-3,476
2422,745	-9	-3,367
2433,329	-7,5	-3,182
2443,918	-4,5	-2,591
2454,496	-3	-2,156
2465,079	-1,5	-1,512
2475,656	0,5	-0,744
2486,234	4	-0,135
2496,823	4	-0,001
2507,395	4	-0,006
2517,966	4	-0,019
2528,537	2	-0,149
2539,103	1,5	-0,464
2549,692	1	-0,699
2560,269	0	-1,089
2570,853	0	-1,16
2581,424	0	-1,209
2592,002	0	-1,277
2602,573	0	-1,246
2613,15	0	-1,169
2623,728	0	-1,226
2634,305	0,5	-0,979
2644,883	1	-0,718
2655,454	1,5	-0,528
2666,025	1,5	-0,466
2676,603	1,5	-0,364
2687,18	2	-0,212
2697,752	2	-0,294
2708,329	2	-0,227
2718,906	2,5	-0,154
2729,484	3	-0,107
2740,067	3,5	-0,069
2750,645	3,5	-0,038
2761,222	4	-0,022
2771,799	3,5	-0,022
2782,371	4	-0,008
2792,948	4	-0,004
2803,52	4	-0,003
2814,091	4	-0,002
2824,668	4	-0,003
2835,246	4	-0,003
2845,817	4	-0,002
2856,388	4	-0,001
2866,966	4	-0,003
2877,549	4	-0,003
2888,133	4	-0,006
2898,716	4	-0,008
2909,288	3,5	-0,02
2919,865	3,5	-0,045
2930,442	3	-0,068
2941,02	3	-0,061
2951,597	3	-0,062
2962,174	3	-0,067
2972,758	2,5	-0,102
2983,341	2	-0,14
2993,913	1,5	-0,202
3004,49	1,5	-0,364
3015,055	1	-0,694
3025,627	0,5	-0,876
3036,198	0,5	-0,925
3046,764	0	-1,419
3057,347	-1	-1,877
3067,918	-3	-2,448
3078,49	-5	-2,853
3089,061	-10,5	-3,455
3099,639	-10,5	-3,499
3110,21	-10,5	-3,497
3120,781	-10,5	-3,496
3131,353	-10,5	-3,494
3141,936	-10,5	-3,495
3152,508	-10,5	-3,494
3163,085	-10,5	-3,495
3172,744	3,5	0

File: _4.txt
Time (s)	Load (N)	Displacement (mm)
0	0	-0,036
10,672	-4,5	-0,876
21,232	-6,5	-1,102
31,803	-7,5	-1,271
42,405	-13	-1,813
52,994	-16,5	-2,216
63,577	-20,5	-2,641
74,185	-26,5	-3,138
84,786	-30	-3,388
95,394	-32,5	-3,471
105,989	-33	-3,489
116,56	-32,5	-3,493
127,138	-32,5	-3,494
137,823	-32,5	-3,498
148,436	-32,5	-3,5
159,044	-32	-3,334
169,639	-32	-3,259
180,223	-29,5	-3,043
190,812	-25	-2,667
201,455	-20,5	-2,118
212,081	-12,5	-1,62
222,694	-8	-1,225
233,314	-4,5	-0,838
243,927	-1,5	-0,391
254,564	-0,5	-0,302
265,172	-3,5	-0,639
275,785	-1	-0,372
286,399	0,5	-0,157
297,012	2	-0,077
307,637	2,5	-0,047
318,275	3	-0,026
328,9	3,5	-0,008
339,514	3,5	-0,004
350,127	3,5	-0,004
360,77	3,5	-0,002
371,408	3,5	-0,054
382,033	2,5	-0,424
392,665	0	-0,642
403,284	-0,5	-0,663
413,915	-2	-0,861
424,553	-4	-1,104
435,19	-4,5	-1,108
445,851	-5	-1,264
456,495	-5,5	-1,362
467,126	-8	-1,719
477,776	-12,5	-2,146
488,419	-15,5	-2,504
499,044	-19,5	-2,899
509,688	-22,5	-3,21
520,325	-27	-3,432
530,945	-29	-3,485
541,57	-29	-3,497
552,213	-29	-3,5
562,833	-28,5	-3,182
573,44	-29	-3,238
584,066	-28	-3,117
594,691	-23,5	-2,79
605,316	-21,5	-2,58
615,936	-18	-2,272
626,561	-15	-1,999
637,175	-13	-1,789
647,806	-6	-1,278
658,413	-4,5	-0,968
669,039	-3	-0,73
679,664	-1	-0,473
690,278	1	-0,135
700,903	3,5	-0,016
711,528	3,5	-0,002
722,148	4	0
732,839	-2	-0,761
743,458	-5,5	-1,35
754,072	-9,5	-2,022
764,685	-13,5	-2,395
775,305	-19	-2,878
785,924	-23,5	-3,339
796,543	-26	-3,44
807,157	-27,5	-3,487
817,77	-28	-3,497
828,384	-22,5	-2,706
839,015	-6	-1,311
849,628	-1	-0,466
860,242	3	-0,056
870,843	4	-0,012
881,463	4	-0,002
892,076	4	0
902,695	-2,5	-0,946
913,321	-9,5	-2,102
923,934	-25,5	-3,425
934,56	-27	-3,498
945,179	-15	-2,14
955,792	-0,5	-0,448
966,406	4	-0,005
977,037	-1,5	-0,87
987,651	-7	-1,775
998,264	-16,5	-2,766
1008,883	-23	-3,307
1019,491	-25,5	-3,442
1030,098	-27	-3,491
1040,7	-27	-3,498
1051,301	-27	-3,5
1061,908	-27	-3,5
1072,522	-27	-3,305
1083,129	-27	-3,247
1093,748	-22,5	-2,84
1104,344	-23	-2,914
1114,969	-21	-2,709
1125,583	-18	-2,468
1136,19	-14,5	-2,142
1146,791	-12	-1,908
1157,399	-9,5	-1,744
1168,024	-9,5	-1,732
1178,638	-8	-1,613
1189,251	-8,5	-1,693
1199,846	-8	-1,548
1210,478	-4,5	-1,153
1221,079	-3,5	-0,951
1231,687	-4,5	-1,07
1242,288	-2,5	-0,848
1252,901	-2	-0,725
1263,521	-1,5	-0,598
1274,134	-0,5	-0,47
1284,742	-0,5	-0,371
1295,373	0,5	-0,178
1305,98	-0,5	-0,357
1316,588	1	-0,167
1327,195	3,5	-0,035
1337,862	4	-0,001
1348,47	4	-0,237
1359,071	2,5	-0,467
1369,673	1,5	-0,557
1380,286	1,5	-0,558
1390,887	-4	-1,324
1401,483	-5,5	-1,634
1412,084	-6	-1,782
1422,698	-11	-2,347
1433,305	-20	-3,205
1443,93	-22,5	-3,374
1454,526	-25	-3,453
1465,145	-26	-3,488
1475,759	-26	-3,498
1486,366	-25	-3,086
1496,973	-13,5	-2,171
1507,581	-8,5	-1,659
1518,194	-5,5	-1,305
1528,808	-3,5	-0,975
1539,415	-1,5	-0,706
1550,01	0	-0,258
1560,606	0	-0,221
1571,207	2	-0,116
1581,809	3	-0,07
1592,416	3,5	-0,015
1603,023	4	-0,006
1613,625	4	-0,008
1624,238	2,5	-0,076
1634,84	0,5	-0,224
1645,435	-1	-0,659
1656,042	0	-0,332
1666,638	2,5	-0,072
1677,245	2,5	-0,097
1687,865	3,5	-0,034
1698,478	4	-0,006
1709,085	4	-0,002
1719,687	4	-0,001
1730,276	4	0
1740,883	4	-0,001
1751,497	4	-0,127
1762,098	1,5	-0,551
1772,706	-2,5	-1,172
1783,313	-3	-1,296
1793,92	-4	-1,491
1804,522	-3,5	-1,581
1815,129	-4,5	-1,686
1825,737	-5	-1,826
1836,344	-5	-1,819
1846,951	-6	-2,056
1857,559	-11	-2,736
1868,178	-13,5	-3,036
1878,78	-15	-3,275
1889,393	-18	-3,375
1899,988	-19,5	-3,431
1910,602	-19,5	-3,475
1921,197	-19,5	-3,484
1931,871	-19,5	-3,497
1942,478	-19	-3,5
1953,085	-18	-3,408
1963,687	-12	-2,764
1974,3	-13,5	-2,82
1984,896	-11	-2,691
1995,497	-9	-2,484
2006,098	-10	-2,564
2016,7	-8	-2,464
2027,295	-13	-2,867
2037,897	-16,5	-3,123
2048,498	-15	-3,07
2059,099	-16,5	-3,494
2069,707	-17	-3,498
2080,308	-16,5	-3,482
2090,909	-16,5	-3,48
2101,511	-15	-3,453
2112,112	-16	-3,449
2122,714	-15	-3,434
2133,315	-14,5	-3,398
2143,922	-12	-3,306
2154,518	-11,5	-3,252
2165,125	-8	-2,858
2175,733	-5	-2,249
2186,346	-3,5	-1,97
2196,935	-2,5	-1,547
2207,537	-1	-1,02
2218,138	2,5	-0,526
2228,74	4	0
2239,335	4	-0,003
2249,93	4,5	-0,005
2260,532	4,5	-0,002
2271,145	4,5	-0,002
2281,747	4,5	-0,001
2292,348	4,5	-0,001
2302,943	4	-0,001
2313,545	4	-0,001
2324,146	4	-0,006
2334,748	4	-0,023
2345,343	3,5	-0,057
2355,944	2,5	-0,146
2366,546	1,5	-0,208
2377,153	1	-0,501
2387,748	0,5	-0,734
2398,362	0	-1,004
2408,963	-2	-1,764
2419,565	-6	-2,599
2430,166	-12,5	-3,154
2440,78	-12,5	-3,498
2451,369	-13	-3,492
2461,976	-12,5	-3,476
2472,59	-11,5	-3,432
2483,197	-9	-3,348
2493,81	-6	-2,943
2504,412	-4	-2,353
2515,019	-2,5	-1,936
2525,633	-1,5	-1,586
2536,288	-2,5	-1,846
2546,889	-1	-1,323
2557,485	-0,5	-1,091
2568,086	-0,5	-0,948
2578,682	0	-0,922
2589,289	3	-0,468
2599,89	0	-0,756
2610,492	3	-0,425
2621,093	4	0
2631,689	4	-0,016
2642,29	3,5	-0,049
2652,891	3,5	-0,054
2663,487	3,5	-0,042
2674,082	3,5	-0,076
2684,69	3,5	-0,04
2695,291	4	-0,026
2705,886	4	-0,016
2716,488	4	-0,005
2727,077	4	-0,008
2737,691	4	-0,012
2748,292	4	-0,002
2758,899	4	-0,006
2769,495	4	-0,013
2780,096	1,5	-0,226
2790,685	0,5	-0,643
2801,287	0	-1,014
2811,9	0,5	-0,982
2822,502	0	-1,184
2833,109	-2,5	-2,288
2843,704	-11	-3,331
2854,306	-10,5	-3,487
2864,901	-6,5	-3,315
2875,503	-9,5	-3,438
2886,104	-7,5	-3,326
2896,699	-6	-3,258
2907,295	-8	-3,376
2917,896	-6	-3,276
2928,498	-6,5	-3,325
2939,099	-6	-3,293
2949,694	-4,5	-2,946
2960,29	-4	-2,91
2970,891	-4,5	-2,973
2981,487	-3	-2,608
2992,082	-2,5	-2,206
3002,695	-1	-1,611
3013,297	0	-0,798
3023,898	3	-0,398
3034,5	4	-0,001
3045,101	4	0
3055,702	4	-0,001
3066,304	4	-0,002
3076,911	4	-0,002
3087,507	3,5	-0,018
3098,102	1,5	-0,338
3108,703	-0,5	-1,7
3119,311	-3	-2,537
3129,906	-7	-2,924
3140,604	-3,5	-2,576
3151,217	-6,5	-2,938
3161,812	-10,5	-3,498
3172,414	-10	-3,47
3175,929	4	0