Folder: Data-filter--cyclical-tests-BEPE-project-/Cycling_tests/_newS/_4G30/entrada

Note: README.md
# Data filter (cyclical tests BEPE project)
python aplication to treat data get by fatigue testing machine

File: _3.txt
Time (s)	Load (N)	Displacement (mm)
0	-0,26	-0,035
10,547	1,5	-0,001
21,041	2	-0,002
31,546	2,34	-0,002
42,057	2,56	-0,01
52,575	1,82	-0,07
63,098	1,5	-0,103
73,621	-2,76	-0,554
84,127	-2,44	-0,647
94,65	-2,28	-0,585
105,192	-2,1	-0,434
115,697	-2,06	-0,532
126,208	-0,66	-0,397
136,726	-1,08	-0,498
147,255	-5,14	-1,051
157,767	-6,74	-1,256
168,284	-10,46	-1,554
178,807	-7,7	-1,36
189,349	-6,46	-1,214
199,866	-8,22	-1,475
210,396	-8,6	-1,479
220,943	-12,7	-2,003
231,46	-16,08	-2,419
242,008	-24,6	-3,235
252,537	-24,62	-3,493
263,073	-24,46	-3,486
273,62	-22,28	-3,392
284,161	-14,98	-2,742
294,697	-4,88	-1,476
305,238	4,46	-0,221
315,78	4,6	-0,005
326,315	3,48	-0,089
336,856	1,72	-0,228
347,416	-3,62	-0,987
357,951	-23,72	-3,164
368,487	-24,04	-3,487
379,034	-23,58	-3,471
389,581	-10,8	-2,459
400,159	-4,18	-1,477
410,706	4,8	0
421,266	4,46	-0,05
431,807	-10,24	-1,719
442,366	-23,8	-3,497
452,938	-21,42	-3,406
463,479	-17,46	-3,182
474,026	-14,5	-2,844
484,586	-12,3	-2,601
495,133	-5,52	-1,787
505,693	0,46	-0,928
516,264	4,12	-0,474
526,853	5,08	-0,263
537,425	5,12	-0,001
547,984	4,72	-0,044
558,538	-10,86	-1,903
569,097	-23,4	-3,498
579,662	-20,18	-3,35
590,24	-9,46	-2,268
600,793	-2,08	-1,332
611,353	5,2	0
621,912	5,28	-0,007
632,471	1,54	-0,28
643,031	-12,54	-2,12
653,608	-15,88	-2,459
664,168	-13,14	-2,243
674,727	-14,48	-2,379
685,316	-15,48	-2,525
695,894	-19,8	-2,918
706,477	-22,86	-3,233
717,079	-22,88	-3,48
727,662	-22,88	-3,498
738,227	-22,84	-3,495
748,787	-18,16	-3,312
759,364	-12,96	-2,835
769,93	-10,42	-2,432
780,495	-8,48	-2,251
791,054	-8,84	-2,311
801,632	-10,88	-2,58
812,209	-11,4	-2,581
822,763	-9,32	-2,33
833,334	-7,7	-2,212
843,893	-7,12	-2,128
854,447	-6,5	-2,01
865,048	-6,4	-2,005
875,614	-6,76	-2,101
886,185	-7,82	-2,202
896,762	-8,54	-2,25
907,322	-8,68	-2,274
917,899	-10,14	-2,468
928,477	-10,14	-2,48
939,072	-10,14	-2,577
949,643	-12,06	-2,756
960,215	-13,26	-2,796
970,81	-13,6	-2,931
981,369	-13,68	-2,96
991,959	-15	-3,027
1002,512	-13,72	-2,995
1013,096	-14,7	-3,054
1023,673	-15,62	-3,098
1034,257	-16,76	-3,245
1044,816	-14,54	-3,127
1055,375	-15,22	-3,081
1065,953	-15,28	-3,098
1076,512	-13,84	-2,979
1087,072	-12,22	-2,826
1097,637	-10,32	-2,582
1108,184	-9,04	-2,397
1118,738	-8,26	-2,417
1129,321	-9,1	-2,427
1139,88	-7,5	-2,249
1150,452	-5,68	-1,998
1161,011	-3,88	-1,761
1171,571	-1,8	-1,481
1182,154	-0,36	-1,216
1192,737	-0,82	-1,151
1203,291	2,3	-0,943
1213,856	1,94	-0,81
1224,428	1,98	-0,819
1235,005	3,36	-0,662
1245,558	4,66	-0,432
1256,112	5,98	-0,258
1266,689	5,98	-0,195
1277,255	6	0
1287,802	6,02	-0,001
1298,367	6,06	-0,002
1308,927	6,08	-0,003
1319,498	6,06	-0,004
1330,058	6,06	-0,003
1340,611	6,04	-0,002
1351,17	6,02	-0,001
1361,742	5,96	-0,142
1372,319	5,54	-0,363
1382,879	5,48	-0,472
1393,432	3,74	-0,589
1403,979	2,24	-0,85
1414,539	0,94	-0,99
1425,098	0,28	-1,105
1435,694	-1,56	-1,415
1446,241	-1,58	-1,474
1456,812	-2,54	-1,605
1467,402	-4	-1,916
1477,985	-7,88	-2,703
1488,545	-10,92	-3,111
1499,104	-13,72	-3,381
1509,669	-14,72	-3,458
1520,235	-15,14	-3,484
1530,812	-15,24	-3,496
1541,39	-15,1	-3,5
1551,967	-13,74	-2,975
1562,544	-9,02	-2,516
1573,104	-3,96	-1,849
1583,669	-1,16	-1,264
1594,222	0,5	-0,823
1604,77	2,5	-0,361
1615,353	5,04	-0,076
1625,925	5,58	-0,023
1636,496	5,8	-0,012
1647,067	5,82	-0,006
1657,627	5,76	-0,011
1668,186	5,78	-0,008
1678,734	5,82	-0,004
1689,311	5,78	-0,002
1699,882	5,38	-0,033
1710,448	2,9	-0,24
1721,013	-1,68	-1,385
1731,579	-1,44	-1,284
1742,132	0,34	-0,94
1752,691	2,2	-0,444
1763,269	4,16	-0,116
1773,84	5,14	-0,039
1784,406	5,7	-0,008
1794,989	5,7	-0,002
1805,542	5,66	0
1816,114	4,76	-0,47
1826,697	0	-1,136
1837,269	-1,66	-1,596
1847,852	-4,36	-2,244
1858,417	-8,06	-2,926
1868,995	-12,38	-3,423
1879,578	-13,46	-3,49
1890,138	-13,36	-3,499
1900,733	-9,2	-2,801
1911,31	-5,16	-2,097
1921,888	-1,48	-1,388
1932,459	0,62	-0,821
1943,037	3,52	-0,186
1953,608	5,12	-0,038
1964,179	5,6	-0,007
1974,745	5,6	-0,002
1985,292	5,54	0
1995,87	4,26	-0,489
2006,423	2,4	-0,829
2016,958	0,56	-1,057
2027,518	-1,42	-1,59
2038,095	-3,12	-2,031
2048,673	-4,24	-2,344
2059,268	-5,74	-2,676
2069,827	-6,04	-2,822
2080,381	-8	-3,165
2090,952	-11,38	-3,45
2101,512	-12,06	-3,491
2112,071	-12,06	-3,498
2122,63	-11,98	-3,5
2133,196	-10,86	-3,066
2143,755	-9,1	-2,829
2154,326	-5,6	-2,385
2164,886	-3,38	-1,963
2175,469	-1,92	-1,554
2186,035	0,16	-1,028
2196,606	1,46	-0,519
2207,165	2,38	-0,284
2217,719	2,46	-0,253
2228,314	4,28	-0,08
2238,886	4,66	-0,045
2249,481	5,1	-0,015
2260,058	5,24	-0,006
2270,63	5,24	-0,002
2281,213	5,2	0
2291,785	5,16	-0,263
2302,332	5,14	-0,137
2312,909	4,34	-0,428
2323,463	3,38	-0,575
2334,046	0,98	-0,916
2344,618	0,36	-1,08
2355,183	-0,26	-1,292
2365,742	-0,58	-1,374
2376,326	-2,26	-1,874
2386,897	-3,5	-2,325
2397,445	-4,38	-2,549
2408,016	-6,44	-3,09
2418,575	-8,2	-3,383
2429,147	-10,42	-3,479
2439,712	-10,54	-3,493
2450,278	-10,54	-3,498
2460,837	-10,46	-3,439
2471,396	-9	-3,015
2481,968	-5,94	-2,527
2492,539	-3,42	-2,071
2503,087	-2,56	-1,815
2513,646	-1,7	-1,558
2524,205	-0,32	-1,088
2534,777	0,2	-0,93
2545,354	1,76	-0,449
2555,92	1,88	-0,3
2566,479	3,3	-0,103
2577,05	4,46	-0,037
2587,61	4,78	-0,015
2598,169	4,88	-0,005
2608,747	4,88	-0,002
2619,312	4,86	-0,001
2629,865	4,84	-0,108
2640,419	3,56	-0,53
2651,014	0,1	-1,106
2661,58	-1	-1,532
2672,157	-2,4	-2,135
2682,746	-4,3	-2,726
2693,336	-5	-2,89
2703,901	-7,1	-3,328
2714,46	-7,9	-3,39
2725,032	-9	-3,448
2735,597	-9,24	-3,478
2746,163	-9,54	-3,491
2756,728	-9,56	-3,497
2767,299	-9,52	-3,499
2777,883	-9,46	-3,479
2788,448	-9,42	-3,332
2799,014	-8,38	-2,92
2809,579	-5,98	-2,674
2820,15	-4,26	-2,294
2830,704	-3,36	-2,125
2841,281	-1,88	-1,714
2851,847	-1,26	-1,49
2862,418	0	-1,05
2872,995	1,42	-0,495
2883,567	2,76	-0,142
2894,126	3,96	-0,054
2904,71	4,56	-0,017
2915,287	4,72	-0,003
2925,858	4,7	-0,001
2936,424	3,72	-0,458
2947,007	0,22	-1,06
2957,561	-0,8	-1,527
2968,138	-2,04	-2,043
2978,691	-2,92	-2,415
2989,251	-4,54	-2,896
2999,816	-6,82	-3,353
3010,358	-8	-3,438
3020,917	-8,58	-3,475
3031,488	-8,82	-3,494
3042,03	-8,82	-3,497
3052,601	-8,76	-3,499
3063,161	-6,86	-2,952
3073,726	-3,66	-2,308
3084,291	-1,84	-1,755
3094,863	-0,34	-1,231
3105,422	0,62	-0,808
3116	1,86	-0,338
3126,547	2,52	-0,17
3137,112	2,6	-0,088
3147,678	4,28	-0,026
3158,237	4,42	-0,016
3166,889	4,54	-0,001

File: _4.txt
Time (s)	Load (N)	Displacement (mm)
0	-0,16	-0,032
10,655	1,64	-0,414
21,239	2,52	-0,059
31,846	2,94	-0,181
42,459	2,84	-0,331
53,073	3,54	-0,274
63,656	3,78	-0,08
74,258	4,06	-0,002
84,865	4,26	-0,002
95,466	4,42	-0,003
106,104	4,54	-0,002
116,729	4,7	-0,002
127,342	4,82	-0,002
137,95	4,94	-0,004
148,563	5,02	-0,002
159,183	5,12	-0,002
169,808	5,16	-0,001
180,457	5,22	0
191,089	5,32	0
201,72	5,4	0
212,34	5,5	0
222,959	5,48	-0,23
233,585	4,74	-0,363
244,204	4,88	-0,367
254,835	3,02	-0,657
265,467	3,08	-0,609
276,086	5,4	-0,319
286,717	5,88	-0,144
297,349	5,96	-0,005
307,992	6	0
318,618	6,08	-0,001
329,255	6,16	-0,002
339,886	6,2	-0,002
350,53	6,28	-0,004
361,149	6,32	-0,005
371,804	6,36	-0,003
382,448	6,4	-0,002
393,103	6,44	-0,004
403,753	6,44	-0,002
414,396	6,44	0
425,045	6,44	0
435,695	6,48	0
446,344	6,58	-0,001
456,982	6,62	-0,002
467,649	6,64	-0,002
478,304	6,68	-0,002
488,942	6,72	-0,002
499,597	6,74	-0,002
510,241	6,72	0
520,902	6,72	-0,159
531,539	6,78	0
542,201	6,8	-0,001
552,854	6,82	-0,001
563,494	6,86	-0,001
574,143	6,9	-0,001
584,786	6,94	-0,001
595,448	6,96	-0,001
606,103	6,96	0
616,765	6,96	0
627,414	6,98	-0,049
638,081	6,7	-0,262
648,761	6,98	-0,214
659,404	7,02	-0,12
670,047	7,06	-0,001
680,715	7,08	0
691,388	7,14	-0,001
702,032	7,14	0
712,675	7,12	-0,087
723,318	6,22	-0,424
733,98	3,7	-0,746
744,641	2,3	-0,961
755,291	0,44	-1,134
765,958	-1,72	-1,454
776,601	-0,54	-1,345
787,257	0,38	-1,21
797,93	0,74	-1,092
808,574	4,5	-0,674
819,259	4,68	-0,674
829,914	7,32	-0,126
840,558	7,42	-0,002
851,225	7,42	-0,01
861,863	6,3	-0,068
872,506	4,16	-0,25
883,149	3,96	-0,278
893,805	2,26	-0,518
904,466	-0,2	-0,844
915,133	-2,78	-1,148
925,801	-2,72	-1,249
936,474	-5,72	-1,574
947,148	-9,78	-2,039
957,821	-11,02	-2,201
968,494	-13,24	-2,304
979,15	-15,96	-2,646
989,817	-18,18	-2,906
1000,485	-18,24	-2,918
1011,134	-19,8	-3,089
1021,777	-21,18	-3,214
1032,439	-21,22	-3,474
1043,094	-21,26	-3,499
1053,756	-21,26	-3,499
1064,429	-21,28	-3,498
1075,102	-21,24	-3,498
1085,746	-21,22	-3,498
1096,413	-21	-3,488
1107,068	-20,98	-3,483
1117,718	-20	-3,453
1128,367	-17,9	-3,349
1139,041	-13,4	-3,04
1149,696	-8,5	-2,412
1160,357	-4,46	-1,902
1171,013	1,6	-1,093
1181,686	7,2	-0,34
1192,336	7,76	0
1202,997	7,8	-0,001
1213,652	7,84	-0,002
1224,32	7,86	-0,004
1234,963	7,86	-0,008
1245,625	7,68	-0,024
1256,274	5,32	-0,166
1266,923	4,86	-0,225
1277,579	2,5	-0,656
1288,228	2,58	-0,587
1298,89	1,24	-0,75
1309,527	2,5	-0,597
1320,164	3,5	-0,47
1330,838	4,84	-0,255
1341,481	4,38	-0,343
1352,161	5,36	-0,19
1362,834	6,48	-0,086
1373,477	6,72	-0,082
1384,151	7,64	-0,034
1394,818	7,68	-0,023
1405,491	7,86	-0,012
1416,159	7,86	-0,01
1426,832	7,88	-0,006
1437,5	7,88	-0,007
1448,173	7,88	-0,005
1458,828	7,86	-0,003
1469,502	7,86	-0,003
1480,145	7,88	-0,005
1490,795	7,88	-0,005
1501,45	7,86	-0,003
1512,129	7,82	-0,002
1522,797	7,82	-0,001
1533,44	7,82	-0,001
1544,102	7,78	-0,001
1554,763	7,78	-0,001
1565,436	7,8	-0,001
1576,104	7,74	-0,171
1586,741	7,74	-0,028
1597,408	7,6	-0,331
1608,052	7,74	-0,25
1618,701	7,74	-0,092
1629,357	6,9	-0,375
1640,012	5,48	-0,623
1650,673	2,82	-0,891
1661,317	3,32	-0,91
1671,978	1,82	-1,198
1682,628	0,52	-1,306
1693,271	-1,7	-1,589
1703,92	-4,02	-2,037
1714,57	-4,88	-2,142
1725,195	-4,9	-2,252
1735,851	-5,68	-2,298
1746,488	-5,76	-2,313
1757,119	-6,02	-2,473
1767,757	-7,58	-2,716
1778,394	-8,66	-2,869
1789,062	-9,46	-3,066
1799,717	-9,7	-3,086
1810,402	-11,9	-3,344
1821,058	-13,48	-3,415
1831,719	-14,92	-3,475
1842,368	-15,12	-3,483
1853,018	-15,12	-3,487
1863,661	-15,04	-3,49
1874,323	-15,08	-3,492
1884,972	-15	-3,493
1895,627	-14,98	-3,493
1906,295	-14,92	-3,497
1916,944	-14,82	-3,497
1927,612	-14,74	-3,498
1938,255	-14,58	-3,499
1948,898	-14,5	-3,499
1959,548	-14,36	-3,499
1970,197	-14,3	-3,499
1980,853	-14,22	-3,499
1991,514	-14,14	-3,499
2002,163	-14,1	-3,499
2012,831	-14	-3,5
2023,468	-13,96	-3,499
2034,105	-13,88	-3,495
2044,755	-13,82	-3,3
2055,392	-13,72	-3,256
2066,042	-13,74	-3,206
2076,691	-11,42	-2,92
2087,359	-11,06	-2,859
2098,008	-8,34	-2,709
2108,651	-7,98	-2,638
2119,301	-6,56	-2,403
2129,95	-5,76	-2,339
2140,599	-5,84	-2,286
2151,249	-5,78	-2,312
2161,892	-6,26	-2,341
2172,56	-3,52	-2,044
2183,215	-2,52	-1,768
2193,87	-2,14	-1,689
2204,526	-1,3	-1,596
2215,175	-0,84	-1,432
2225,819	-1,04	-1,519
2236,468	-0,42	-1,386
2247,123	0,06	-1,224
2257,785	0,26	-1,2
2268,458	0,62	-1,1
2279,108	1,4	-0,893
2289,769	1,84	-0,71
2300,436	2,18	-0,705
2311,116	3,16	-0,427
2321,777	3,06	-0,479
2332,426	2,18	-0,637
2343,082	2,36	-0,634
2353,749	3,44	-0,404
2364,387	3,24	-0,31
2375,042	3,74	-0,256
2385,679	3,4	-0,278
2396,347	4,26	-0,224
2406,978	3,2	-0,334
2417,622	3,62	-0,254
2428,295	4,54	-0,146
2438,95	3,46	-0,329
2449,612	2,82	-0,488
2460,267	3,26	-0,362
2470,917	2,96	-0,34
2481,56	3,06	-0,338
2492,215	4,1	-0,15
2502,859	4,7	-0,152
2513,52	4,86	-0,088
2524,188	5,8	-0,061
2534,843	6,34	-0,028
2545,492	6,46	-0,014
2556,16	6,52	-0,014
2566,827	6,2	-0,028
2577,488	4,9	-0,101
2588,138	2,62	-0,526
2598,787	1,38	-0,791
2609,437	1,66	-0,745
2620,098	2,04	-0,624
2630,759	2,18	-0,606
2641,379	2,88	-0,333
2652,022	4,06	-0,168
2662,672	5,38	-0,09
2673,339	6	-0,035
2683,982	6,4	-0,01
2694,644	6,46	-0,004
2705,317	6,42	-0,001
2715,961	6,4	-0,012
2726,61	5,9	-0,284
2737,253	5,58	-0,404
2747,921	3,88	-0,65
2758,57	2,9	-0,91
2769,219	1,22	-1,134
2779,881	-0,4	-1,604
2790,524	-2,22	-2,079
2801,186	-4,02	-2,549
2811,823	-5,36	-2,829
2822,49	-8,14	-3,349
2833,14	-9,56	-3,413
2843,801	-10,74	-3,476
2854,451	-10,9	-3,491
2865,094	-10,98	-3,496
2875,749	-10,98	-3,498
2886,417	-10,94	-3,499
2897,06	-10,94	-3,499
2907,716	-10,92	-3,499
2918,377	-10,86	-3,485
2929,02	-10,84	-3,337
2939,67	-10,42	-3,088
2950,331	-7,58	-2,899
2961,005	-5,86	-2,576
2971,648	-4,38	-2,324
2982,297	-3,52	-2,148
2992,941	-2,4	-1,885
3003,59	-0,78	-1,529
3014,251	-0,4	-1,346
3024,895	0	-1,238
3035,55	0,8	-1,011
3046,206	1,48	-0,815
3056,867	2,06	-0,558
3067,498	3,04	-0,247
3078,142	4,14	-0,122
3088,797	5,3	-0,047
3099,447	6	-0,016
3110,09	6,12	-0,005
3120,733	6,1	-0,002
3131,365	6,1	-0,001
3142,014	6,08	0
3152,664	6,04	-0,163
3163,301	5,54	-0,375
3173,944	3,7	-0,664
3184,606	0,76	-1,293
3192,783	6,04	-0,001