Folder: Data-filter--cyclical-tests-BEPE-project-/ensaios_Ciclicos/_50perc/_2gap/entrada

Note: README.md
# Data filter (cyclical tests BEPE project)
python aplication to treat data get by fatigue testing machine

File: _3.txt
Time (s)	Load (N)	Displacement (mm)
0	0	-0,04
10,751	1	-0,187
21,472	1	0
32,224	1	-0,03
42,945	1	-0,07
53,685	1,5	-0,002
64,4	1,5	-0,001
75,127	1,5	-0,001
85,873	1,5	-0,002
96,588	1,5	-0,003
107,321	1,5	-0,004
118,049	1,5	-0,005
128,794	1,5	-0,009
139,54	1,5	-0,011
150,267	1,5	-0,015
160,994	1,5	-0,023
171,734	1,5	-0,022
182,473	1,5	-0,033
193,243	1,5	-0,033
203,982	1,5	-0,042
214,739	1,5	-0,022
225,485	1,5	-0,013
236,248	2	-0,005
246,999	2	-0,003
257,757	1,5	-0,001
268,496	1,5	-0,064
279,236	1,5	-0,324
290,005	0	-0,585
300,738	0	-0,735
311,502	-2	-1,166
322,271	-3	-1,686
333,016	-4	-1,901
343,78	-6	-2,349
354,519	-7	-2,534
365,271	-9	-2,805
375,998	-9	-2,945
386,755	-12	-3,324
397,501	-12,5	-3,394
408,216	-13	-3,407
418,962	-13	-3,446
429,701	-14,5	-3,476
440,464	-14,5	-3,491
451,198	-14,5	-3,493
461,943	-14,5	-3,496
472,701	-14,5	-3,498
483,464	-14,5	-3,499
494,215	-14,5	-3,5
504,949	-14,5	-3,317
515,694	-14,5	-3,224
526,427	-13	-3,023
537,173	-12	-2,9
547,906	-10	-2,688
558,67	-8	-2,404
569,421	-5,5	-2,08
580,19	-4,5	-1,744
590,936	-2,5	-1,323
601,693	-1,5	-1,076
612,427	-1,5	-0,968
623,166	-0,5	-0,64
633,923	0	-0,423
644,675	0,5	-0,227
655,426	1	-0,117
666,171	1	-0,084
676,923	2	-0,038
687,662	1,5	-0,026
698,426	2	-0,01
709,165	1,5	-0,012
719,898	2	-0,01
730,656	2	-0,004
741,401	2	-0,004
752,153	2	-0,004
762,88	1,5	-0,003
773,625	2	-0,003
784,359	2	-0,002
795,104	2	-0,001
805,837	2	-0,025
816,571	2	-0,052
827,322	2	-0,026
838,074	2	-0,082
848,825	1,5	-0,31
859,552	1,5	-0,181
870,304	2	-0,193
881,043	2	-0,169
891,789	1,5	-0,199
902,522	1,5	-0,356
913,279	1	-0,462
924,019	0	-0,674
934,752	0	-0,785
945,51	-0,5	-0,852
956,261	-1	-1,034
967,018	-2	-1,387
977,758	-2,5	-1,626
988,503	-2,5	-1,739
999,272	-3	-1,823
1010,012	-4	-2,104
1020,769	-4,5	-2,246
1031,509	-5,5	-2,52
1042,248	-6	-2,705
1052,993	-8	-2,994
1063,745	-9,5	-3,276
1074,49	-10,5	-3,367
1085,229	-12,5	-3,444
1095,975	-12,5	-3,451
1106,714	-12,5	-3,476
1117,46	-13	-3,492
1128,199	-13	-3,495
1138,92	-13	-3,494
1149,666	-13	-3,495
1160,411	-13	-3,497
1171,157	-13	-3,498
1181,884	-13	-3,499
1192,617	-13	-3,499
1203,369	-13	-3,499
1214,108	-13	-3,5
1224,854	-13	-3,498
1235,593	-13	-3,497
1246,344	-12,5	-3,388
1257,096	-12,5	-3,24
1267,841	-12	-3,178
1278,592	-11,5	-3,011
1289,332	-12,5	-3,136
1300,083	-11,5	-3,045
1310,811	-12,5	-3,193
1321,556	-12,5	-3,295
1332,289	-12,5	-3,206
1343,017	-12,5	-3,294
1353,768	-12,5	-3,195
1364,514	-12,5	-3,192
1375,253	-12	-3,079
1386,01	-11	-3,035
1396,744	-12	-3,045
1407,489	-12	-3,108
1418,229	-11	-3,008
1428,98	-12	-3,072
1439,713	-12	-3,162
1450,453	-12	-3,153
1461,204	-12,5	-3,354
1471,943	-12,5	-3,5
1482,677	-12,5	-3,499
1493,422	-13	-3,499
1504,168	-12,5	-3,498
1514,931	-12,5	-3,498
1525,652	-12,5	-3,498
1536,392	-12,5	-3,497
1547,167	-12,5	-3,498
1557,907	-12,5	-3,498
1568,64	-12,5	-3,498
1579,391	-12,5	-3,499
1590,131	-12,5	-3,5
1600,864	-12,5	-3,293
1611,585	-12	-3,163
1622,337	-9	-2,838
1633,076	-7,5	-2,637
1643,816	-7	-2,528
1654,549	-6,5	-2,409
1665,294	-4,5	-2,147
1676,016	-4,5	-2,117
1686,767	-3	-1,787
1697,501	-2,5	-1,685
1708,24	-2	-1,458
1718,979	-1,5	-1,354
1729,713	-1,5	-1,412
1740,452	-2	-1,472
1751,179	-1,5	-1,294
1761,925	-1	-1,288
1772,676	-1	-1,218
1783,422	-0,5	-1,062
1794,173	-0,5	-0,955
1804,912	-0,5	-0,946
1815,658	-0,5	-0,854
1826,397	0	-0,712
1837,149	0	-0,674
1847,876	0	-0,79
1858,627	0	-0,698
1869,367	0	-0,519
1880,106	0,5	-0,231
1890,839	1	-0,147
1901,573	1	-0,115
1912,312	1	-0,11
1923,04	1,5	-0,091
1933,773	1,5	-0,081
1944,512	1	-0,11
1955,246	1,5	-0,046
1965,985	1,5	-0,026
1976,731	2	-0,02
1987,482	2	-0,018
1998,221	2	-0,015
2008,961	2	-0,018
2019,7	2	-0,01
2030,44	2	-0,006
2041,179	2	-0,005
2051,906	2	-0,005
2062,658	2	-0,004
2073,397	2	-0,003
2084,124	2	-0,002
2094,864	2	-0,001
2105,603	2	-0,001
2116,343	2	0
2127,088	1,5	-0,18
2137,821	1,5	-0,329
2148,555	1,5	-0,388
2159,294	1,5	-0,498
2170,034	1	-0,491
2180,779	0	-0,663
2191,518	-0,5	-0,816
2202,264	-1	-1,074
2212,997	-1	-1,111
2223,736	-1,5	-1,201
2234,47	-1	-1,126
2245,197	-1	-1,134
2255,949	-1,5	-1,248
2266,676	-1,5	-1,337
2277,403	-1,5	-1,24
2288,137	-1	-1,234
2298,882	-1,5	-1,401
2309,64	-1,5	-1,665
2320,361	-2	-1,738
2331,1	-2	-1,847
2341,846	-2,5	-2,062
2352,579	-3,5	-2,322
2363,318	-4,5	-2,56
2374,058	-5,5	-2,872
2384,791	-7	-3,106
2395,531	-8	-3,314
2406,264	-9,5	-3,379
2416,997	-10,5	-3,456
2427,737	-10,5	-3,477
2438,488	-11	-3,488
2449,216	-11	-3,488
2459,937	-10,5	-3,489
2470,67	-10,5	-3,492
2481,404	-10,5	-3,495
2492,137	-10,5	-3,496
2502,87	-10,5	-3,497
2513,604	-11	-3,497
2524,337	-10,5	-3,497
2535,065	-10,5	-3,495
2545,804	-10,5	-3,496
2556,525	-10,5	-3,494
2567,271	-10,5	-3,498
2577,998	-10,5	-3,498
2588,726	-10,5	-3,498
2599,465	-10,5	-3,498
2610,21	-10,5	-3,499
2620,95	-10,5	-3,499
2631,689	-10	-3,413
2642,435	-9	-3,06
2653,168	-8	-2,98
2663,901	-7	-2,788
2674,617	-6,5	-2,783
2685,35	-4,5	-2,522
2696,089	-3,5	-2,342
2706,835	-2,5	-1,979
2717,562	-2	-1,823
2728,302	-1,5	-1,654
2739,047	-1,5	-1,626
2749,792	-1	-1,384
2760,532	-0,5	-1,29
2771,277	-0,5	-1,241
2782,017	-0,5	-1,078
2792,762	0	-0,926
2803,501	0	-0,833
2814,241	0	-0,769
2824,986	0	-0,593
2835,713	0	-0,522
2846,447	0	-0,638
2857,18	0	-0,611
2867,914	0,5	-0,542
2878,653	0	-0,494
2889,38	0,5	-0,355
2900,108	0,5	-0,31
2910,847	1	-0,185
2921,587	1	-0,099
2932,314	1,5	-0,086
2943,053	1	-0,117
2953,793	1,5	-0,051
2964,532	2	-0,035
2975,254	2	-0,022
2985,981	2	-0,012
2996,726	2	-0,006
3007,46	2	-0,003
3018,193	2	-0,002
3028,926	2	-0,002
3039,642	2	-0,001
3050,375	2	-0,001
3061,109	2	-0,089
3071,848	1,5	-0,267
3082,587	1	-0,49
3093,315	1	-0,588
3104,048	0	-0,733
3114,782	0	-0,686
3125,509	0	-0,73
3136,254	0	-0,96
3146,988	-0,5	-1,072
3157,721	-0,5	-1,11
3168,454	-0,5	-1,249
3179,194	-0,5	-1,349
3189,927	-0,5	-1,572
3200,661	-1	-1,774
3211,406	-1,5	-2,053
3215,258	2	0

File: _4.txt
Time (s)	Load (N)	Displacement (mm)
0	0	-0,034
10,829	1	-0,212
21,586	1,5	0
32,337	1,5	-0,001
43,107	1,5	-0,001
53,876	1,5	-0,001
64,664	1,5	-0,001
75,433	1,5	-0,002
86,214	1,5	-0,002
96,984	1,5	-0,007
107,747	1,5	-0,015
118,558	1,5	-0,021
129,334	1,5	-0,029
140,103	1,5	-0,036
150,879	1,5	-0,037
161,654	2	-0,027
172,447	2	-0,024
183,223	2	-0,013
193,998	2	-0,019
204,78	2	-0,026
215,591	2	-0,016
226,378	2	-0,006
237,178	2	-0,003
247,971	2	-0,002
258,782	2	-0,001
269,576	2	0
280,369	2	-0,217
291,162	1,5	-0,366
301,956	1,5	-0,391
312,773	0	-0,673
323,549	-0,5	-0,878
334,342	-1	-0,966
345,141	-1,5	-1,084
355,965	-2,5	-1,439
366,77	-3	-1,532
377,576	-4,5	-2,048
388,375	-6	-2,506
399,156	-6	-2,496
409,962	-6,5	-2,59
420,767	-8	-2,776
431,578	-8	-2,89
442,384	-9,5	-2,99
453,183	-11	-3,288
464,013	-12,5	-3,409
474,812	-13,5	-3,461
485,629	-14,5	-3,486
496,441	-14	-3,489
507,258	-14	-3,497
518,07	-14	-3,499
528,881	-14	-3,383
539,698	-12,5	-3,036
550,51	-10,5	-2,756
561,315	-9	-2,656
572,126	-7,5	-2,404
582,938	-4,5	-1,876
593,737	-0,5	-0,903
604,543	1,5	-0,141
615,36	2,5	-0,009
626,165	2	0
636,971	-1	-0,932
647,764	-3,5	-1,806
658,57	-7	-2,74
669,363	-10,5	-3,346
680,162	-13,5	-3,495
690,98	-13,5	-3,491
701,785	-10,5	-2,752
712,584	-5,5	-2,092
723,378	-2,5	-1,404
734,189	0	-0,566
744,989	1,5	-0,086
755,794	2,5	-0,016
766,575	2,5	-0,005
777,375	2,5	-0,003
788,156	2	-0,002
798,967	2	0
809,755	2	-0,001
820,56	2	-0,308
831,348	1	-0,58
842,147	0	-0,746
852,952	0	-0,888
863,746	0	-0,8
874,539	0	-0,797
885,345	-0,5	-0,903
896,132	-1,5	-1,167
906,925	-1,5	-1,218
917,737	-2	-1,337
928,536	-1,5	-1,286
939,335	-2,5	-1,505
950,141	-2,5	-1,593
960,922	-2	-1,493
971,734	-3	-1,708
982,545	-3	-1,844
993,32	-3	-1,793
1004,102	-3	-2,055
1014,883	-4,5	-2,348
1025,688	-5,5	-2,512
1036,488	-6,5	-2,774
1047,282	-7	-2,893
1058,075	-7,5	-3,018
1068,874	-9	-3,255
1079,667	-10	-3,338
1090,485	-12	-3,443
1101,284	-12,5	-3,465
1112,084	-12,5	-3,48
1122,871	-12,5	-3,483
1133,67	-12,5	-3,49
1144,464	-12,5	-3,493
1155,263	-12,5	-3,494
1166,044	-12,5	-3,49
1176,844	-12,5	-3,49
1187,637	-12,5	-3,488
1198,425	-12	-3,493
1209,218	-12	-3,493
1220,005	-12,5	-3,493
1230,811	-12,5	-3,496
1241,616	-12,5	-3,498
1252,41	-12,5	-3,499
1263,203	-12	-3,5
1273,99	-11,5	-3,092
1284,784	-6,5	-2,376
1295,577	-4,5	-2,023
1306,358	-3	-1,758
1317,146	-2,5	-1,491
1327,939	-2	-1,45
1338,733	-1,5	-1,412
1349,52	-1,5	-1,204
1360,313	-1	-1,123
1371,107	-0,5	-0,897
1381,888	0	-0,619
1392,67	0,5	-0,394
1403,457	1	-0,143
1414,244	1,5	-0,113
1425,044	2	-0,052
1435,837	2	-0,013
1446,636	2,5	-0,006
1457,424	2,5	-0,003
1468,211	2,5	-0,004
1479,011	2,5	-0,003
1489,798	2,5	-0,002
1500,585	2	-0,098
1511,391	1,5	-0,546
1522,172	0	-0,856
1532,954	-1,5	-1,256
1543,735	-2,5	-1,618
1554,528	-3,5	-2,142
1565,322	-3,5	-2,198
1576,103	-3,5	-2,226
1586,89	-4,5	-2,38
1597,672	-5,5	-2,609
1608,471	-7,5	-3,073
1619,247	-9	-3,332
1630,034	-9	-3,308
1640,821	-8,5	-3,24
1651,609	-7	-2,967
1662,396	-6,5	-2,939
1673,184	-5,5	-2,667
1683,971	-4,5	-2,365
1694,776	-4	-2,342
1705,552	-3,5	-2,258
1716,345	-4,5	-2,495
1727,15	-4,5	-2,522
1737,932	-4,5	-2,491
1748,719	-4,5	-2,58
1759,507	-4	-2,361
1770,294	-4	-2,387
1781,075	-4,5	-2,542
1791,875	-4,5	-2,532
1802,674	-4,5	-2,458
1813,45	-4	-2,35
1824,249	-4,5	-2,473
1835,042	-4,5	-2,614
1845,842	-5	-2,68
1856,641	-5	-2,657
1867,446	-6,5	-2,986
1878,228	-5	-2,786
1889,039	-7	-3,086
1899,821	-7,5	-3,209
1910,608	-8,5	-3,315
1921,377	-9	-3,329
1932,165	-8,5	-3,337
1942,952	-9,5	-3,372
1953,746	-9,5	-3,39
1964,527	-10	-3,366
1975,314	-9	-3,343
1986,102	-8,5	-3,296
1996,877	-7,5	-3,179
2007,676	-7,5	-3,148
2018,464	-7	-3,02
2029,251	-6	-2,833
2040,039	-5	-2,742
2050,82	-5	-2,717
2061,619	-4,5	-2,621
2072,401	-4,5	-2,5
2083,176	-3,5	-2,301
2093,963	-3,5	-2,343
2104,751	-5	-2,758
2115,526	-10	-3,418
2126,314	-10	-3,454
2137,101	-9,5	-3,424
2147,888	-9	-3,378
2158,682	-8,5	-3,325
2169,457	-8	-3,255
2180,251	-7,5	-3,298
2191,038	-7	-3,105
2201,813	-5,5	-2,933
2212,601	-5	-2,825
2223,394	-4	-2,53
2234,169	-4	-2,475
2244,969	-3,5	-2,423
2255,756	-3	-2,268
2266,55	-4,5	-2,626
2277,331	-4	-2,568
2288,118	-4	-2,552
2298,912	-4,5	-2,746
2309,693	-4,5	-2,716
2320,475	-3,5	-2,467
2331,262	-4	-2,664
2342,043	-7,5	-3,304
2352,831	-8	-3,334
2363,624	-7,5	-3,207
2374,405	-6	-3,028
2385,187	-4,5	-2,716
2395,974	-4	-2,603
2406,774	-4,5	-2,636
2417,555	-4	-2,547
2428,348	-3,5	-2,396
2439,142	-3	-2,148
2449,917	-2,5	-1,996
2460,705	-2	-1,73
2471,492	-2	-1,757
2482,303	-2	-1,902
2493,097	-2	-1,729
2503,896	-1,5	-1,602
2514,683	-1	-1,3
2525,465	-0,5	-0,89
2536,24	-0,5	-0,925
2547,022	0	-0,884
2557,797	0	-0,839
2568,59	0	-0,799
2579,366	0	-0,924
2590,141	0	-0,742
2600,922	-0,5	-1,078
2611,704	0,5	-0,813
2622,491	2,5	-0,173
2633,267	2,5	0
2644,06	2,5	-0,001
2654,841	2,5	-0,001
2665,617	2,5	-0,001
2676,404	2,5	-0,003
2687,186	2,5	-0,014
2697,973	2	-0,065
2708,76	1,5	-0,104
2719,548	2	-0,034
2730,335	2,5	-0,02
2741,122	2,5	-0,02
2751,91	2	-0,027
2762,697	2	-0,038
2773,479	2,5	-0,03
2784,272	2	-0,032
2795,065	2,5	-0,016
2805,847	3	-0,004
2816,634	2,5	-0,001
2827,434	2,5	0
2838,215	2,5	-0,001
2848,996	2,5	0
2859,784	2,5	-0,095
2870,577	2	-0,316
2881,364	2	-0,433
2892,158	1,5	-0,521
2902,957	1,5	-0,511
2913,745	1,5	-0,436
2924,532	1,5	-0,472
2935,313	2	-0,281
2946,101	2	-0,328
2956,882	2	-0,33
2967,67	1,5	-0,34
2978,445	2,5	-0,108
2989,238	2,5	-0,083
3000,032	2	-0,076
3010,801	2,5	0
3021,588	2,5	-0,001
3032,376	2	0
3043,163	2,5	0
3053,945	2,5	-0,001
3064,732	2,5	-0,001
3075,525	2,5	-0,001
3086,313	2,5	-0,001
3097,106	2,5	-0,001
3107,888	2,5	-0,002
3118,663	2,5	-0,003
3129,45	2,5	-0,003
3140,256	2,5	-0,003
3151,037	2,5	-0,003
3161,824	2,5	-0,002
3172,612	2	-0,001
3183,381	2,5	-0,001
3194,169	2,5	-0,001
3204,956	2	-0,006
3215,743	2,5	-0,008
3226,537	1	-0,106
3231,204	2,5	-0,001

File: _5.txt
Time (s)	Load (N)	Displacement (mm)
0	0	-0,036
10,666	1	0
21,262	1,5	-0,004
31,863	1,5	-0,016
42,465	-1	-0,397
53,072	-3,5	-1,058
63,673	-10	-2,108
74,287	-15	-2,792
84,906	-18	-3,337
95,519	-18	-3,499
106,133	-18	-3,489
116,752	-15,5	-3,418
127,36	-10,5	-2,85
137,979	-5	-1,93
148,604	-2,5	-1,225
159,224	-0,5	-0,798
169,843	2	-0,001
180,463	2,5	-0,009
191,112	2,5	-0,009
201,767	2	-0,018
212,411	2,5	-0,008
223,06	2,5	-0,005
233,686	2,5	-0,004
244,299	2,5	-0,003
254,924	2,5	-0,003
265,55	2	-0,008
276,163	2	-0,014
286,788	2,5	-0,011
297,414	2,5	-0,016
308,063	1,5	-0,095
318,689	1,5	-0,153
329,338	2	-0,047
339,999	2,5	-0,012
350,655	2,5	-0,005
361,292	2,5	-0,002
371,948	2,5	0
382,585	2,5	0
393,192	2,5	-0,001
403,824	2,5	0
414,449	2,5	-0,002
425,099	3	-0,001
435,748	2,5	-0,032
446,385	2	-0,366
457,029	0	-0,695
467,672	-2	-1,178
478,315	-3	-1,459
488,959	-2,5	-1,366
499,59	-3	-1,511
510,24	-4	-1,962
520,883	-6,5	-2,641
531,526	-9,5	-3,021
542,17	-12	-3,348
552,813	-14	-3,455
563,445	-15	-3,492
574,094	-15	-3,498
584,744	-15	-3,5
595,381	-15	-3,195
606,018	-13	-2,933
616,662	-10,5	-2,794
627,299	-9,5	-2,575
637,93	-9	-2,548
648,586	-7,5	-2,379
659,241	-10,5	-2,772
669,885	-10,5	-2,789
680,522	-9	-2,582
691,165	-7,5	-2,415
701,809	-7,5	-2,322
712,44	-5,5	-2,174
723,078	-6,5	-2,318
733,727	-8	-2,488
744,358	-12,5	-3,025
754,996	-14,5	-3,252
765,645	-13	-3,035
776,294	-11,5	-2,919
786,932	-11	-2,876
797,557	-10,5	-2,779
808,195	-14,5	-3,47
818,844	-14,5	-3,5
829,481	-14,5	-3,494
840,113	-12	-3,374
850,75	-6,5	-2,682
861,382	-4,5	-2,118
872,025	-1,5	-1,006
882,65	2,5	-0,001
893,288	2,5	-0,027
903,925	1	-0,208
914,557	0	-0,762
925,182	-2	-1,568
935,819	-7	-2,372
946,469	-5	-2,127
957,112	-5	-2,109
967,744	-5	-2,15
978,375	-5,5	-2,239
989,012	-3,5	-1,885
999,626	-2	-1,586
1010,245	-1,5	-1,358
1020,864	-0,5	-0,954
1031,496	-0,5	-0,954
1042,133	0	-0,829
1052,759	-0,5	-0,856
1063,396	-1,5	-1,325
1074,009	-4	-1,936
1084,617	-7	-2,385
1095,254	-4,5	-2,05
1105,862	-9,5	-2,724
1116,487	-6	-2,243
1127,118	-6,5	-2,364
1137,732	-9	-2,676
1148,357	-6,5	-2,381
1158,977	-4,5	-1,994
1169,608	-4	-2,014
1180,221	-5,5	-2,174
1190,853	-8,5	-2,656
1201,472	-8,5	-2,661
1212,08	-10,5	-2,883
1222,705	-8,5	-2,71
1233,336	-7,5	-2,518
1243,962	-6,5	-2,425
1254,593	-6	-2,386
1265,213	-6,5	-2,408
1275,832	-8,5	-2,649
1286,445	-11	-2,989
1297,059	-11	-3,035
1307,666	-13,5	-3,332
1318,292	-13,5	-3,499
1328,917	-13,5	-3,495
1339,542	-13,5	-3,493
1350,162	-13	-3,497
1360,769	-13,5	-3,438
1371,394	-13	-3,5
1382,014	-12	-3,11
1392,639	-6	-2,357
1403,265	-3,5	-1,919
1413,878	-2,5	-1,679
1424,479	-1	-1,313
1435,093	-0,5	-1,151
1445,712	0	-1,039
1456,338	0,5	-0,475
1466,957	1,5	-0,124
1477,57	2,5	-0,033
1488,202	3	-0,008
1498,815	3	-0,001
1509,429	2,5	-0,001
1520,054	3	-0,293
1530,667	2	-0,406
1541,281	2,5	-0,52
1551,9	-0,5	-0,96
1562,526	-1,5	-1,292
1573,145	-2,5	-1,685
1583,758	-3	-2,021
1594,378	-4,5	-2,515
1604,997	-7,5	-3,061
1615,617	-8,5	-3,266
1626,236	-11	-3,41
1636,867	-12	-3,468
1647,481	-13	-3,481
1658,106	-13	-3,49
1668,719	-12,5	-3,491
1679,333	-13	-3,496
1689,952	-13	-3,498
1700,566	-13	-3,499
1711,197	-13	-3,36
1721,811	-12	-3,106
1732,418	-9,5	-2,885
1743,043	-7,5	-2,552
1753,651	-7,5	-2,661
1764,258	-8,5	-2,739
1774,884	-5	-2,246
1785,509	-3	-1,79
1796,128	-0,5	-1,164
1806,748	0	-0,539
1817,355	1	-0,234
1827,986	2,5	-0,038
1838,6	2,5	-0,014
1849,225	3	-0,008
1859,839	2,5	-0,002
1870,452	2,5	-0,17
1881,071	1	-0,563
1891,685	0	-0,713
1902,298	-1	-1,176
1912,911	-1,5	-1,332
1923,537	-1	-1,307
1934,15	-1,5	-1,383
1944,77	-1,5	-1,441
1955,383	-2	-1,702
1966,003	-2	-1,718
1976,622	-1,5	-1,403
1987,235	-1,5	-1,372
1997,849	-2	-1,645
2008,462	-2	-1,779
2019,082	-3	-1,948
2029,701	-3	-2,16
2040,308	-3,5	-2,291
2050,91	-2,5	-1,94
2061,523	-3	-2,037
2072,142	-2,5	-1,856
2082,756	-2	-1,745
2093,369	-2,5	-1,921
2103,983	-2	-1,757
2114,602	-1,5	-1,458
2125,209	-1	-1,122
2135,829	-1	-1,084
2146,448	-1	-1,131
2157,068	-1,5	-1,358
2167,687	-1,5	-1,437
2178,306	-1,5	-1,606
2188,92	-2	-1,736
2199,533	-1	-1,21
2210,153	1	-0,566
2220,766	2,5	-0,144
2231,385	3	-0,002
2242,011	2,5	-0,013
2252,612	1	-0,241
2263,232	-0,5	-1,073
2273,851	-1	-1,194
2284,47	-2	-1,568
2295,09	-1,5	-1,537
2305,703	-1	-1,244
2316,328	-1,5	-1,534
2326,96	-0,5	-1,074
2337,573	0	-1,026
2348,181	0	-1,029
2358,8	0	-0,604
2369,413	0	-0,662
2380,027	-1	-1,346
2390,646	-5,5	-2,394
2401,26	-3	-1,899
2411,861	-6	-2,479
2422,48	-12,5	-3,237
2433,1	-12	-3,5
2443,719	-12,5	-3,498
2454,339	-12	-3,495
2464,964	-12	-3,498
2475,577	-12	-3,499
2486,185	-12	-3,499
2496,804	-12	-3,426
2507,424	-10,5	-3,078
2518,049	-5,5	-2,464
2528,668	-1,5	-1,608
2539,282	0	-0,915
2549,907	1,5	-0,11
2560,509	3	-0,007
2571,116	2,5	0
2581,735	-0,5	-0,951
2592,349	-2	-1,787
2602,968	-4,5	-2,616
2613,588	-9,5	-3,382
2624,201	-12	-3,492
2634,814	-12	-3,499
2645,416	-9,5	-2,935
2656,035	-5	-2,389
2666,654	-2	-1,683
2677,274	-0,5	-1,136
2687,893	0,5	-0,516
2698,507	2,5	-0,034
2709,126	3	-0,004
2719,733	2,5	0
2730,347	1,5	-0,576
2740,948	-1	-1,044
2751,568	-2	-1,702
2762,181	-3	-2,272
2772,8	-6	-2,997
2783,414	-9	-3,355
2794,027	-12	-3,477
2804,641	-12	-3,496
2815,248	-11,5	-3,499
2825,867	-11	-3,186
2836,487	-7,5	-2,755
2847,112	-3,5	-2,21
2857,72	-2	-1,878
2868,333	-1	-1,51
2878,94	-0,5	-1,198
2889,554	0	-0,989
2900,173	0	-0,501
2910,787	1,5	-0,115
2921,4	2,5	-0,021
2932,013	2,5	-0,006
2942,615	2,5	-0,001
2953,222	2	-0,42
2963,841	0	-0,712
2974,455	-1	-1,346
2985,074	-2	-1,824
2995,694	-3,5	-2,419
3006,301	-6	-3,033
3016,92	-10	-3,429
3027,54	-11	-3,49
3038,147	-10,5	-3,498
3048,761	-10,5	-3,471
3059,374	-7,5	-2,829
3069,987	-4,5	-2,419
3080,601	-3	-1,981
3091,214	-1	-1,46
3101,828	0	-0,74
3112,441	0,5	-0,409
3123,054	2	-0,078
3133,662	3	-0,015
3144,269	3	-0,004
3154,895	3	-0,001
3165,502	2	-0,434
3176,121	0	-0,881
3180,117	3	-0,001