Folder: Data-filter--cyclical-tests-BEPE-project-/ensaios_Ciclicos/_50perc/_3gap/entrada

Note: README.md
# Data filter (cyclical tests BEPE project)
python aplication to treat data get by fatigue testing machine

File: _1.txt
Time (s)	Load (N)	Displacement (mm)
0	0	-0,026
10,659	1,5	-0,001
21,296	1,5	-0,002
31,928	1,5	-0,002
42,565	2	-0,007
53,202	2	-0,022
63,846	1,5	-0,104
74,488	1	-0,256
85,12	0,5	-0,44
95,763	-0,5	-0,885
106,4	-1	-1,051
117,038	-1	-0,924
127,681	-0,5	-0,832
138,319	0,5	-0,439
148,956	0,5	-0,51
159,587	0,5	-0,387
170,231	0	-0,369
180,868	0,5	-0,397
191,517	1	-0,306
202,161	0	-0,51
212,804	0	-0,578
223,448	0	-0,569
234,085	0	-0,668
244,728	-0,5	-0,924
255,366	-1	-1,054
266,009	-1,5	-1,259
276,646	-1,5	-1,362
287,29	-2,5	-1,535
297,945	-2,5	-1,433
308,601	-3	-1,596
319,25	-3	-1,617
329,893	-3,5	-1,769
340,537	-5	-1,979
351,192	-5,5	-2,155
361,83	-7,5	-2,396
372,485	-9	-2,622
383,158	-9,5	-2,57
393,808	-9	-2,618
404,463	-12	-2,992
415,101	-13,5	-3,331
425,732	-13,5	-3,499
436,393	-13,5	-3,499
447,067	-13,5	-3,492
457,716	-13,5	-3,482
468,366	-12,5	-3,442
479,021	-11	-3,355
489,676	-10	-3,264
500,332	-7,5	-2,932
510,975	-6	-2,6
521,636	-4,5	-2,23
532,274	-3	-1,776
542,917	-2,5	-1,546
553,585	-1,5	-1,397
564,252	-2	-1,386
574,895	-1	-1,011
585,545	1	-0,601
596,182	2,5	-0,328
606,82	2,5	-0,146
617,487	2,5	-0,168
628,148	2,5	0
638,804	3	-0,001
649,447	2,5	-0,001
660,103	2,5	-0,004
670,752	2,5	-0,018
681,407	2,5	-0,035
692,057	2	-0,108
702,712	1,5	-0,102
713,362	1	-0,37
724,023	1	-0,373
734,672	0,5	-0,495
745,352	0	-0,633
755,995	0	-0,885
766,645	-0,5	-1,06
777,288	-1	-1,191
787,932	-1,5	-1,326
798,575	-2	-1,526
809,23	-2,5	-1,661
819,903	-2,5	-1,71
830,565	-3	-1,757
841,232	-3,5	-1,895
851,882	-4,5	-2,059
862,543	-5,5	-2,206
873,222	-5	-2,193
883,896	-5,5	-2,287
894,581	-3,5	-1,979
905,261	-3	-1,796
915,946	-2,5	-1,685
926,625	-1,5	-1,476
937,293	-1,5	-1,444
947,96	-1,5	-1,384
958,622	-1	-1,336
969,283	-1	-1,259
979,95	-0,5	-1,015
990,606	-1	-1,193
1001,261	-0,5	-1,135
1011,922	-1	-1,345
1022,578	-1,5	-1,438
1033,245	-1	-1,348
1043,901	-1	-1,296
1054,568	-0,5	-1,104
1065,223	-0,5	-1,01
1075,891	0	-0,601
1086,546	1,5	-0,112
1097,196	2	-0,033
1107,857	2,5	-0,007
1118,518	2,5	-0,027
1129,186	0	-0,785
1139,835	-1,5	-1,27
1150,497	-2,5	-1,745
1161,158	-3	-2,049
1171,801	-4,5	-2,386
1182,451	-4,5	-2,54
1193,1	-6,5	-2,876
1203,768	-8	-3,279
1214,435	-11	-3,448
1225,072	-12	-3,482
1235,722	-12	-3,49
1246,401	-12	-3,499
1257,068	-12	-3,5
1267,724	-10,5	-2,969
1278,385	-8	-2,717
1289,053	-5	-2,275
1299,714	-5	-2,22
1310,375	-6	-2,394
1321,043	-5	-2,33
1331,704	-3,5	-1,962
1342,372	-2,5	-1,69
1353,051	-1	-1,333
1363,712	-0,5	-1,048
1374,386	0	-0,732
1385,053	0,5	-0,488
1395,715	1	-0,258
1406,37	1,5	-0,137
1417,037	1,5	-0,078
1427,699	1,5	-0,109
1438,36	1,5	-0,174
1449,016	1,5	-0,139
1459,665	2	-0,055
1470,326	2,5	-0,022
1480,994	3	-0,007
1491,661	2,5	-0,004
1502,322	2,5	-0,004
1512,984	2,5	-0,002
1523,633	2,5	-0,001
1534,283	2,5	-0,001
1544,962	2,5	-0,001
1555,629	2,5	0
1566,297	2,5	-0,336
1576,97	1	-0,549
1587,626	-0,5	-0,893
1598,305	-1	-1,261
1608,984	-0,5	-0,906
1619,664	-1,5	-1,35
1630,331	-2,5	-1,976
1640,999	-2,5	-2,03
1651,672	-2	-1,735
1662,351	-2	-1,678
1673,019	-2	-1,7
1683,704	-1,5	-1,396
1694,354	-1,5	-1,534
1705,033	-2,5	-1,823
1715,694	-2	-1,676
1726,362	-1,5	-1,56
1737,041	-1	-1,214
1747,708	0	-0,752
1758,382	0	-0,766
1769,055	-0,5	-0,993
1779,723	-1	-1,194
1790,378	-1,5	-1,539
1801,039	-2,5	-1,801
1811,689	-2,5	-1,966
1822,338	-2,5	-2
1832,988	-2	-1,929
1843,667	-2	-1,72
1854,334	-2	-1,729
1865,014	-1,5	-1,592
1875,675	-1,5	-1,579
1886,331	-1,5	-1,556
1896,992	-2	-1,622
1907,659	-2	-1,733
1918,321	-2	-1,858
1928,988	-2,5	-1,915
1939,656	-2,5	-2,058
1950,335	-3,5	-2,401
1960,99	-4	-2,485
1971,664	-5,5	-2,797
1982,325	-6	-2,905
1992,987	-6	-2,87
2003,666	-5	-2,717
2014,327	-6,5	-3,001
2024,989	-6,5	-3,034
2035,656	-7,5	-3,242
2046,329	-7,5	-3,232
2057,003	-7	-3,099
2067,676	-7,5	-3,14
2078,338	-8	-3,257
2088,999	-8,5	-3,269
2099,672	-10,5	-3,45
2110,34	-11	-3,476
2121,007	-10,5	-3,479
2131,675	-11	-3,488
2142,33	-11	-3,486
2153,009	-11	-3,493
2163,689	-10,5	-3,458
2174,356	-10,5	-3,476
2185,011	-10,5	-3,467
2195,685	-11	-3,483
2206,34	-11	-3,487
2217,008	-11	-3,491
2227,687	-11	-3,498
2238,36	-11	-3,499
2249,028	-11	-3,5
2259,689	-9,5	-2,998
2270,375	-5	-2,348
2281,042	-3	-1,965
2291,715	-1,5	-1,569
2302,389	-1,5	-1,519
2313,056	0	-0,911
2323,736	0,5	-0,252
2334,409	2,5	-0,023
2345,076	2,5	-0,006
2355,744	2,5	-0,001
2366,417	1,5	-0,394
2377,091	0,5	-0,727
2387,758	-0,5	-1,02
2398,419	-1	-1,16
2409,069	-1	-1,495
2419,754	-3	-2,07
2430,409	-4,5	-2,69
2441,071	-6	-3,016
2451,75	-9,5	-3,413
2462,406	-10,5	-3,475
2473,067	-11	-3,488
2483,728	-11	-3,493
2494,39	-11	-3,498
2505,063	-11	-3,499
2515,713	-10	-3,128
2526,368	-8	-2,853
2537,041	-4,5	-2,306
2547,703	-3,5	-2,054
2558,352	-2,5	-1,878
2569,014	-1,5	-1,626
2579,681	-0,5	-1,202
2590,336	0	-0,994
2600,986	0	-0,868
2611,641	0,5	-0,492
2622,291	1	-0,3
2632,946	1	-0,234
2643,619	1,5	-0,142
2654,275	1	-0,164
2664,942	1,5	-0,152
2675,609	2	-0,089
2686,265	2,5	-0,03
2696,92	2,5	-0,03
2707,588	3	-0,019
2718,255	3	-0,012
2728,904	2,5	-0,008
2739,56	3	-0,007
2750,221	2,5	-0,008
2760,871	2,5	-0,007
2771,544	2,5	-0,008
2782,199	2,5	-0,005
2792,861	2,5	-0,004
2803,534	2,5	-0,003
2814,201	2,5	-0,002
2824,857	2,5	-0,002
2835,518	2,5	-0,001
2846,174	3	-0,001
2856,829	2,5	-0,001
2867,472	2,5	-0,001
2878,146	2,5	-0,005
2888,807	2,5	-0,228
2899,463	1,5	-0,448
2910,136	1,5	-0,596
2920,803	-0,5	-0,946
2931,471	0	-0,829
2942,132	-0,5	-0,884
2952,8	-0,5	-0,995
2963,467	0	-0,89
2974,134	0	-0,926
2984,796	-1	-1,253
2995,463	-1	-1,45
3006,125	-1	-1,155
3016,804	0	-0,912
3027,471	1	-0,688
3038,127	0,5	-0,628
3048,788	0	-0,752
3059,456	0	-0,784
3070,129	0	-0,82
3080,784	0	-0,902
3091,434	-0,5	-1,014
3102,095	-0,5	-1,064
3112,756	-0,5	-0,932
3123,412	0	-0,92
3134,061	0	-0,831
3144,723	-0,5	-1,147
3155,384	-1,5	-1,622
3166,039	-1,5	-1,795
3176,719	-1,5	-1,93
3187,368	-2	-2,155
3193,29	2,5	-0,001

File: _3.txt
Time (s)	Load (N)	Displacement (mm)
0	0	-0,036
10,643	-1	-0,739
21,202	-3,5	-1,134
31,762	-5	-1,492
42,321	-6	-1,866
52,892	-8	-2,136
63,47	-9	-2,479
74,041	-12	-2,924
84,619	-15	-3,317
95,184	-16,5	-3,433
105,761	-15	-3,348
116,357	-15,5	-3,388
126,946	-13,5	-3,282
137,523	-16,5	-3,456
148,107	-17	-3,488
158,678	-17	-3,497
169,262	-17	-3,489
179,857	-14	-2,83
190,453	-9	-2,228
201,036	-5	-1,627
211,613	-2	-1,023
222,221	0	-0,224
232,792	1,5	-0,032
243,411	2	-0,007
254,019	2	-0,002
264,62	2	-0,003
275,222	2	-0,004
285,823	1,5	0
296,412	2	-0,294
307,038	-1	-1
317,67	-3	-1,549
328,289	-6	-2,314
338,89	-10,5	-3,117
349,509	-15,5	-3,482
360,123	-15,5	-3,487
370,73	-16	-3,496
381,326	-15,5	-3,499
391,927	-15,5	-3,242
402,516	-14	-3,013
413,112	-14	-3,038
423,725	-14	-2,93
434,326	-12,5	-2,797
444,916	-9,5	-2,485
455,523	-7	-2,137
466,125	-5,5	-1,855
476,726	-4	-1,558
487,315	-3	-1,368
497,923	-1,5	-0,999
508,524	-0,5	-0,686
519,138	0,5	-0,171
529,745	1,5	-0,048
540,346	2	-0,014
550,96	2	-0,004
561,579	2	0
572,181	2	-0,289
582,8	-1	-0,961
593,407	-1,5	-0,959
604,009	-1,5	-1,049
614,616	-2,5	-1,307
625,218	-2	-1,164
635,813	0	-0,659
646,426	-1	-0,958
657,016	-3	-1,472
667,635	-5,5	-2,242
678,249	-9	-2,946
688,85	-11,5	-3,309
699,445	-14,5	-3,472
710,065	-15	-3,498
720,666	-12,5	-2,948
731,273	-6,5	-2,168
741,869	-3,5	-1,486
752,488	-2	-1,11
763,096	-0,5	-0,675
773,703	0,5	-0,187
784,317	2	-0,026
794,924	2	-0,004
805,537	2	-0,001
816,151	1,5	-0,404
826,77	-0,5	-0,935
837,383	-1,5	-1,25
847,985	-3	-1,574
858,58	-3	-1,737
869,2	-4	-1,983
879,783	-5	-2,285
890,402	-5,5	-2,356
901,004	-7	-2,7
911,605	-10	-3,184
922,213	-11	-3,348
932,826	-12,5	-3,413
943,439	-13,5	-3,452
954,029	-14	-3,491
964,636	-14	-3,498
975,238	-14	-3,499
985,839	-14	-3,5
996,44	-14	-3,394
1007,054	-12	-3,027
1017,661	-8,5	-2,518
1028,263	-8	-2,434
1038,876	-5,5	-2,145
1049,495	-2,5	-1,45
1060,073	-2,5	-1,427
1070,674	-2	-1,219
1081,288	-1	-0,932
1091,889	0	-0,618
1102,496	0	-0,477
1113,098	0	-0,45
1123,693	1	-0,17
1134,288	1,5	-0,068
1144,896	1,5	-0,091
1155,479	1	-0,1
1166,081	0,5	-0,17
1176,676	0	-0,296
1187,283	1	-0,16
1197,867	0,5	-0,212
1208,474	0,5	-0,229
1219,064	1	-0,16
1229,671	1	-0,115
1240,266	0	-0,478
1250,868	-0,5	-0,934
1261,475	-2	-1,203
1272,083	-3	-1,664
1282,69	-3,5	-1,734
1293,297	-3,5	-1,773
1303,899	-3	-1,594
1314,494	-3	-1,472
1325,078	-3	-1,644
1335,673	-3	-1,644
1346,28	-5,5	-2,134
1356,876	-8	-2,516
1367,471	-11,5	-3,005
1378,079	-13,5	-3,456
1388,674	-13,5	-3,499
1399,269	-13,5	-3,496
1409,865	-13	-3,487
1420,466	-13,5	-3,492
1431,074	-13	-3,494
1441,669	-13	-3,48
1452,252	-12,5	-3,454
1462,836	-10	-3,287
1473,431	-8,5	-3,061
1484,032	-9,5	-3,241
1494,628	-9,5	-3,205
1505,211	-9,5	-3,211
1515,813	-10,5	-3,348
1526,408	-10,5	-3,333
1537,009	-11	-3,387
1547,611	-11,5	-3,404
1558,212	-12,5	-3,461
1568,802	-13	-3,467
1579,403	-13	-3,468
1589,998	-12,5	-3,463
1600,594	-12,5	-3,467
1611,183	-12	-3,432
1621,785	-12,5	-3,464
1632,392	-10,5	-3,368
1642,987	-12	-3,429
1653,589	-10,5	-3,362
1664,178	-8,5	-3,052
1674,774	-7	-2,804
1685,381	-5	-2,435
1695,976	-4,5	-2,196
1706,584	-4,5	-2,248
1717,185	-2	-1,434
1727,775	-0,5	-0,911
1738,382	-1,5	-1,44
1748,977	-1,5	-1,4
1759,573	-2	-1,46
1770,168	-2,5	-1,562
1780,764	-2,5	-1,66
1791,365	-2	-1,473
1801,966	-2	-1,323
1812,55	-1	-0,898
1823,151	0	-0,674
1833,74	1,5	-0,512
1844,348	2	-0,058
1854,937	2	-0,001
1865,533	2	-0,004
1876,14	2	-0,009
1886,735	2	-0,016
1897,331	1,5	-0,036
1907,926	1,5	-0,045
1918,522	2	-0,049
1929,117	1,5	-0,052
1939,706	0	-0,35
1950,308	-0,5	-0,807
1960,897	-1,5	-1,245
1971,499	-4,5	-2,038
1982,094	-8	-2,642
1992,683	-13	-3,456
2003,285	-13	-3,5
2013,874	-12,5	-3,496
2024,464	-12	-3,468
2035,053	-8,5	-3,131
2045,648	-3,5	-2,052
2056,238	-1	-1,073
2066,833	2	-0,163
2077,423	2	-0,006
2088,012	1	-0,123
2098,595	-0,5	-0,877
2109,209	-2	-1,418
2119,816	-5,5	-2,218
2130,406	-10,5	-3,056
2141,001	-12,5	-3,499
2151,596	-12	-3,487
2162,18	-10,5	-3,406
2172,775	-6	-2,869
2183,365	-4,5	-2,415
2193,942	-2,5	-1,816
2204,537	-2	-1,684
2215,133	-1,5	-1,511
2225,74	0	-0,611
2236,336	1,5	-0,499
2246,937	0,5	-0,6
2257,538	0,5	-0,653
2268,134	-0,5	-1,09
2278,723	-1,5	-1,381
2289,312	-1,5	-1,586
2299,908	-2,5	-1,838
2310,497	-3,5	-2,161
2321,081	-4,5	-2,538
2331,694	-7,5	-3,15
2342,289	-10,5	-3,424
2352,879	-11,5	-3,484
2363,48	-12	-3,496
2374,07	-12	-3,499
2384,665	-12	-3,207
2395,242	-10	-2,954
2405,832	-5,5	-2,372
2416,427	-3,5	-1,959
2427,029	-1,5	-1,476
2437,63	-0,5	-0,892
2448,219	0	-0,384
2458,797	1	-0,139
2469,386	2	-0,034
2479,988	2	-0,006
2490,589	2	-0,002
2501,172	2,5	-0,066
2511,774	1,5	-0,355
2522,357	0,5	-0,727
2532,947	-1	-1,289
2543,536	-2	-1,633
2554,131	-2,5	-1,868
2564,709	-3	-2,084
2575,31	-4	-2,465
2585,894	-5,5	-2,927
2596,483	-8	-3,29
2607,072	-9	-3,386
2617,674	-9,5	-3,423
2628,263	-10	-3,438
2638,865	-10	-3,455
2649,46	-10	-3,457
2660,055	-10,5	-3,472
2670,663	-10,5	-3,481
2681,27	-10,5	-3,491
2691,86	-10,5	-3,493
2702,455	-10,5	-3,494
2713,05	-10,5	-3,497
2723,646	-10,5	-3,498
2734,235	-10,5	-3,499
2744,83	-10,5	-3,419
2755,42	-9,5	-2,999
2766,015	-9	-2,934
2776,611	-7,5	-2,784
2787,212	-6	-2,604
2797,801	-5,5	-2,583
2808,397	-4,5	-2,188
2818,992	-4	-2,139
2829,582	-3	-2,014
2840,177	-2	-1,747
2850,772	-2	-1,648
2861,38	-1,5	-1,439
2871,981	-1	-1,28
2882,571	-1	-1,239
2893,166	-0,5	-1,217
2903,761	-0,5	-1,228
2914,357	0	-1,018
2924,946	0	-0,748
2935,542	0	-0,522
2946,125	0	-0,4
2956,72	1	-0,142
2967,316	1,5	-0,068
2977,905	1,5	-0,062
2988,489	1	-0,113
2999,09	2	-0,034
3009,685	2	-0,015
3020,281	2	-0,003
3030,876	2	-0,003
3041,471	2	-0,008
3052,061	2	-0,02
3062,65	1,5	-0,062
3073,24	1,5	-0,083
3083,847	1,5	-0,081
3094,46	1,5	-0,076
3105,044	1,5	-0,1
3115,633	1,5	-0,079
3126,217	0,5	-0,239
3136,8	0	-0,563
3147,389	0	-0,783
3157,979	0	-1,146
3168,586	-0,5	-1,468
3173,476	2,5	0

File: _4.txt
Time (s)	Load (N)	Displacement (mm)
0	0	-0,035
10,918	0	-0,43
21,741	1	-0,159
32,571	1	-0,219
43,418	1	-0,147
54,254	1	-0,242
65,101	1	-0,32
75,93	1	-0,284
86,79	1	-0,33
97,631	1,5	-0,065
108,503	1,5	-0,289
119,362	0	-0,566
130,209	0	-0,604
141,045	0	-0,641
151,922	-1,5	-0,942
162,781	-2,5	-1,046
173,629	-3	-1,196
184,494	-4,5	-1,65
195,341	-5,5	-1,922
206,219	-8	-2,435
217,054	-10	-2,743
227,926	-14	-3,3
238,779	-15,5	-3,446
249,633	-16,5	-3,483
260,498	-16,5	-3,497
271,357	-16,5	-3,499
282,228	-16,5	-3,377
293,088	-16	-3,071
303,953	-15,5	-3,01
314,849	-12,5	-2,534
325,708	-8,5	-2,127
336,597	-4,5	-1,581
347,463	-3	-1,18
358,352	-1	-0,756
369,236	0	-0,347
380,131	0	-0,264
391,02	1	-0,114
401,886	1,5	-0,055
412,793	2	-0,013
423,676	2	-0,005
434,572	2	-0,001
445,455	2	-0,001
456,333	2	-0,024
467,204	2	-0,055
478,093	1,5	-0,377
488,977	1,5	-0,319
499,86	1,5	-0,436
510,737	0	-0,615
521,615	-1	-0,895
532,504	-2	-1,085
543,406	-3	-1,474
554,283	-3,5	-1,63
565,178	-4	-1,946
576,068	-4,5	-2,046
586,945	-5,5	-2,236
597,828	-6,5	-2,437
608,712	-8,5	-2,778
619,595	-10,5	-3,056
630,491	-12,5	-3,343
641,374	-14	-3,417
652,245	-14,5	-3,451
663,135	-15	-3,478
674,018	-15	-3,484
684,889	-15	-3,487
695,761	-15	-3,493
706,632	-15	-3,496
717,516	-15	-3,497
728,411	-15	-3,499
739,276	-15	-3,499
750,16	-15	-3,42
761,037	-15	-3,308
771,896	-15	-3,306
782,774	-15	-3,179
793,663	-14,5	-3,08
804,535	-14	-3,076
815,436	-12	-2,83
826,325	-10,5	-2,667
837,203	-10	-2,664
848,068	-10	-2,615
858,945	-9,5	-2,581
869,811	-9	-2,49
880,706	-7,5	-2,269
891,572	-6,5	-2,12
902,437	-6	-1,974
913,314	-5	-1,791
924,186	-5	-1,814
935,051	-4,5	-1,774
945,923	-4,5	-1,791
956,788	-3	-1,499
967,647	-3	-1,499
978,519	-2,5	-1,336
989,378	-2	-1,285
1000,249	-2,5	-1,259
1011,121	-1,5	-1,116
1021,98	-1	-0,917
1032,834	-1	-0,918
1043,699	-1	-0,938
1054,564	-1,5	-0,979
1065,424	-1,5	-1,019
1076,277	-1,5	-0,971
1087,136	-1,5	-1,037
1098,008	-1	-1,086
1108,873	-1,5	-1,196
1119,727	-1	-1,095
1130,592	-1	-1,009
1141,457	-2	-1,179
1152,317	-2,5	-1,308
1163,182	-1,5	-1,19
1174,036	-1,5	-1,016
1184,901	-0,5	-0,865
1195,754	0	-0,451
1206,626	0	-0,474
1217,479	0	-0,357
1228,344	0	-0,472
1239,204	0,5	-0,316
1250,075	1,5	-0,092
1260,941	1	-0,134
1271,794	1	-0,146
1282,664	1	-0,102
1293,513	1	-0,086
1304,378	1,5	-0,096
1315,243	1,5	-0,038
1326,103	1,5	-0,036
1336,962	2	-0,03
1347,828	2	-0,014
1358,693	2	-0,005
1369,552	2	-0,002
1380,418	2	-0,002
1391,271	2	-0,002
1402,142	2	-0,001
1413,008	2	-0,001
1423,867	2	-0,001
1434,721	2	-0,001
1445,586	2	-0,001
1456,451	2	-0,002
1467,317	2	-0,003
1478,158	2	-0,006
1489,017	2	-0,021
1499,865	1,5	-0,054
1510,718	1,5	-0,07
1521,584	1,5	-0,086
1532,443	0	-0,351
1543,296	-1	-0,989
1554,15	-2,5	-1,458
1565,015	-4	-1,856
1575,869	-5,5	-2,106
1586,722	-6	-2,224
1597,581	-9,5	-2,731
1608,435	-10,5	-2,896
1619,294	-10	-2,882
1630,153	-8,5	-2,614
1641,013	-10	-2,839
1651,872	-10	-2,847
1662,732	-9	-2,716
1673,603	-8,5	-2,61
1684,456	-8,5	-2,616
1695,322	-9	-2,7
1706,175	-10	-2,86
1717,029	-10,5	-2,962
1727,888	-12	-3,104
1738,747	-11	-3,02
1749,607	-13,5	-3,462
1760,472	-13,5	-3,499
1771,319	-13,5	-3,498
1782,173	-13,5	-3,495
1793,038	-13,5	-3,491
1803,892	-13	-3,48
1814,751	-13	-3,467
1825,616	-12,5	-3,461
1836,47	-11,5	-3,414
1847,329	-10,5	-3,38
1858,188	-10,5	-3,373
1869,048	-10,5	-3,341
1879,907	-9	-3,187
1890,767	-9	-3,186
1901,632	-9,5	-3,269
1912,491	-8	-3,125
1923,345	-7	-2,901
1934,198	-5,5	-2,641
1945,057	-5	-2,436
1955,917	-4,5	-2,354
1966,77	-3	-2,067
1977,636	-4,5	-2,301
1988,501	-4,5	-2,361
1999,354	-5	-2,462
2010,208	-5,5	-2,647
2021,061	-7,5	-3,03
2031,902	-8	-3,066
2042,762	-10,5	-3,322
2053,621	-12,5	-3,458
2064,481	-13	-3,482
2075,346	-13,5	-3,494
2086,205	-13,5	-3,496
2097,059	-13	-3,499
2107,918	-13,5	-3,499
2118,766	-13	-3,5
2129,625	-13	-3,377
2140,484	-11,5	-3,065
2151,338	-12	-3,028
2162,191	-10,5	-2,895
2173,056	-9	-2,714
2183,91	-7,5	-2,545
2194,769	-6,5	-2,418
2205,617	-6	-2,41
2216,488	-6	-2,215
2227,341	-5	-2,173
2238,189	-5,5	-2,236
2249,06	-5	-2,135
2259,913	-4,5	-2,066
2270,767	-3,5	-1,896
2281,62	-3	-1,669
2292,474	-2,5	-1,616
2303,327	-2,5	-1,414
2314,174	-1,5	-1,189
2325,028	-1	-0,945
2335,887	-0,5	-0,804
2346,734	0	-0,744
2357,588	-0,5	-0,792
2368,441	-0,5	-0,787
2379,301	0	-0,725
2390,148	0	-0,66
2401,007	0	-0,556
2411,861	0	-0,214
2422,714	0,5	-0,162
2433,574	1,5	-0,052
2444,433	1,5	-0,064
2455,292	1	-0,113
2466,158	0,5	-0,15
2477,017	0,5	-0,218
2487,87	0	-0,491
2498,724	0	-0,662
2509,583	0	-0,627
2520,443	0	-0,825
2531,302	-1	-0,955
2542,161	-1	-1,255
2553,015	-1,5	-1,525
2563,874	-2,5	-1,736
2574,727	-2,5	-1,731
2585,587	-3	-1,862
2596,446	-3,5	-2,065
2607,306	-4	-2,104
2618,165	-3,5	-2,028
2629,024	-4,5	-2,185
2639,884	-4,5	-2,234
2650,731	-4	-2,191
2661,597	-4,5	-2,318
2672,462	-6	-2,474
2683,309	-4,5	-2,315
2694,157	-5,5	-2,473
2705,01	-6	-2,59
2715,875	-6	-2,584
2726,735	-5	-2,421
2737,6	-4,5	-2,34
2748,46	-4,5	-2,332
2759,313	-4	-2,27
2770,172	-2	-1,851
2781,038	-2	-1,701
2791,897	-1	-1,357
2802,756	-0,5	-1,205
2813,616	-0,5	-0,985
2824,469	0	-0,889
2835,323	-0,5	-0,916
2846,182	0	-0,94
2857,041	0	-0,852
2867,895	0	-0,752
2878,748	0	-0,619
2889,607	0	-0,408
2900,479	0,5	-0,243
2911,338	1	-0,112
2922,186	1	-0,121
2933,045	1	-0,142
2943,904	1	-0,123
2954,764	1,5	-0,072
2965,617	1,5	-0,051
2976,477	2	-0,034
2987,33	2	-0,026
2998,189	2	-0,018
3009,049	2	-0,006
3019,896	2	-0,003
3030,749	2	-0,001
3041,609	2	-0,001
3052,468	2	-0,001
3063,322	2	-0,001
3074,181	2	-0,001
3085,04	2	0
3095,894	2	-0,076
3106,747	2	-0,064
3117,612	2	-0,152
3128,472	2	-0,238
3139,325	1,5	-0,464
3150,185	1,5	-0,435
3161,038	0,5	-0,504
3171,903	1	-0,622
3182,763	-0,5	-0,912
3193,61	-0,5	-1,03
3204,457	-0,5	-1,235
3215,323	-1	-1,566
3226,182	-1,5	-1,925
3237,036	-1,5	-2,106
3247,895	-2,5	-2,385
3253,889	2	0