Folder: Data-filter--cyclical-tests-BEPE-project-/Cycling_tests/_20perc/_3gap/entrada

Note: README.md
# Data filter (cyclical tests BEPE project)
python aplication to treat data get by fatigue testing machine

File: _2.txt
Time (s)	Load (N)	Displacement (mm)
87,032	-27	-3,465
95,258	-8,5	-1,888
103,273	3,5	-0,015
111,702	-0,5	-0,374
120,54	3	-0,023
128,609	-18	-2,486
295,34	-0,5	-0,589
302,923	-17,5	-3,075
310,465	-0,5	-0,599
318,061	-17	-3,048
325,583	-2,5	-0,91
524,197	-23	-3,491
531,504	-0,5	-0,686
538,794	-3,5	-1,332
546,101	-23,5	-3,5
553,403	3,5	-0,035
671,758	-8,5	-1,956
678,964	4	-0,001
686,163	-19	-3,408
693,423	-3	-1,29
700,604	3,5	-0,282
707,786	-22	-3,473
714,992	-3	-1,268
722,203	2,5	-0,562
729,409	-22,5	-3,491
736,59	-2	-1,08
817,844	-22	-3,478
825,031	-2,5	-1,218
832,201	3	-0,509
839,4	-21,5	-3,485
846,6	-2,5	-1,138
853,798	2,5	-0,563
861,005	-22	-3,485
868,169	-2,5	-1,194
875,404	0	-0,712
882,61	-22	-3,494
963,852	4	-0,001
971,045	-18,5	-3,372
978,209	-6,5	-1,82
985,39	4	-0,015
992,56	-18,5	-3,382
999,735	-6	-1,854
1006,947	4	0
1014,105	-14,5	-3,112
1021,276	-9,5	-2,195
1028,408	4	-0,004
1035,577	-12,5	-2,882
1042,741	-11,5	-2,38
1049,892	4,5	-0,004
1057,476	-21,5	-3,497
1064,598	-2	-1,169
1071,749	4	-0,138
1078,925	-19	-3,412
1086,082	-9	-1,998
1093,264	4,5	-0,001
1100,446	-14,5	-3,156
1107,585	-10,5	-2,258
1114,737	4	-0,002
1121,906	-12,5	-2,882
1129,058	-13	-2,488
1136,234	4	-0,004
1143,403	-10,5	-2,65
1516,312	-20	-3,497
1523,427	-1,5	-1,116
1530,543	4	-0,001
1537,671	-12,5	-3,105
1544,798	-14	-2,734
1551,944	4	-0,038
1559,095	-3	-1,516
1566,217	-20	-3,495
1573,321	-3,5	-1,52
1580,43	4	-0,001
1587,96	-20	-3,499
1595,081	0	-0,639
1602,233	-0,5	-0,858
1609,36	-19,5	-3,484
1616,506	-4	-1,609
1623,634	4,5	-0,001
1630,738	-11,5	-2,896
1637,847	-19,5	-3,009
1644,95	2,5	-0,106
1652,048	-1,5	-1,096
1659,176	-19,5	-3,487
1666,279	-3,5	-1,604
1673,437	4,5	0
1680,552	-12,5	-2,974
1687,668	-13,5	-2,684
1694,82	4,5	-0,007
1701,935	-5,5	-2,252
1709,039	-19,5	-3,36
1716,16	2,5	-0,129
1723,282	-1,5	-1,195
1730,476	-19,5	-3,498
1737,573	-1	-1,029
1744,689	4,5	-0,123
1751,792	-14	-3,228
1758,92	-11	-2,414
1766,012	4,5	-0,011
1809,443	4	-0,076
1816,571	-16	-3,384
1823,656	-7,5	-2,088
1830,784	4,5	-0,003
1837,893	-6,5	-2,436
1844,997	-19,5	-3,326
1852,113	1,5	-0,195
1859,21	-1,5	-1,192
1866,302	-19	-3,49
1873,394	-2,5	-1,368
1880,479	4,5	0
1887,547	-11,5	-3,038
1894,632	-14,5	-2,764
1901,748	4	-0,022
1908,815	-3	-1,667
1915,901	-19	-3,498
1922,987	0	-0,886
1930,066	4	-0,153
1937,152	-13	-3,241
1944,273	-9	-2,33
1951,383	4,5	-0,005
1958,505	-5	-2,156
1965,596	-19	-3,499
1972,712	0,5	-0,663
1979,797	3,5	-0,381
1986,871	-15	-3,316
1993,945	-10,5	-2,48
2001,036	4	-0,024
2008,11	-2,5	-1,396
2015,219	-19	-3,495
2022,353	-1,5	-1,254
2029,426	4,5	-0,001
2036,494	-8,5	-2,652
2043,586	-18,5	-3,365
2050,665	1	-0,404
2057,745	0	-0,716
2064,824	-16,5	-3,437
2071,922	-7	-2,149
2079,062	4,5	-0,003
2086,207	-9	-2,806
2093,305	-14	-2,946
2100,409	3,5	-0,054
2107,488	-2	-1,376
2114,574	-18	-3,493
2121,653	-1	-1,169
2128,757	4,5	-0,07
2135,86	-13	-3,21
2142,964	-8,5	-2,421
2150,086	4,5	-0,009
2157,171	-4	-1,958
2164,245	-17,5	-3,499
2171,312	1	-0,446
2178,386	-1	-0,986
2185,49	-17,5	-3,492
2192,587	-1	-1,108
2199,685	4	-0,233
2206,782	-15	-3,405
2213,886	-5	-1,936
2220,996	4	-0,001
2228,075	-9	-2,858
2235,137	-13,5	-2,872
2242,21	4	-0,038
2249,314	-3	-1,772
2256,406	-17	-3,499
2263,473	1	-0,504
2270,583	-1	-1,001
2277,668	-17	-3,491
2284,772	-0,5	-1,004
2291,834	3	-0,457
2298,907	-15	-3,442
2305,999	-4	-1,768
2313,108	4,5	-0,001
2320,182	-8,5	-2,911
2327,285	-10,5	-2,587
2334,383	4	-0,017
2341,469	-3,5	-2,002
2348,548	-16,5	-3,5
2355,622	1	-0,474
2362,707	1	-0,688
2369,817	-15,5	-3,461
2376,891	-4	-1,927
2383,964	4	-0,003
2391,044	-5	-2,331
2398,111	-15,5	-3,383
2405,191	1,5	-0,299
2412,271	-0,5	-0,898
2419,356	-15	-3,488
2426,43	-1,5	-1,533
2433,534	4,5	0
2440,607	-8	-3,009
2447,681	-7,5	-2,585
2454,754	4	-0,033
2461,858	-2,5	-1,882
2468,925	-14,5	-3,498
2476,017	0,5	-0,693
2483,097	1,5	-0,626
2490,17	-13,5	-3,459
2497,25	-3	-1,957
2504,323	4,5	-0,002
2511,427	-5,5	-2,575
2518,507	-14	-3,19
2525,64	3,5	-0,079
2532,726	-1,5	-1,321
2539,799	-13,5	-3,494
2546,903	0	-1,015
2553,977	4	-0,244
2561,092	-10	-3,364
2568,16	-4	-2,266
2575,239	4,5	-0,007
2582,319	-3	-2,122
2589,393	-12,5	-3,499
2596,49	1	-0,434
2603,6	0	-0,832
2610,691	-12	-3,476
2617,753	-2	-1,932
2624,838	4,5	-0,002
2631,918	-4	-2,452
2639,01	-12	-3,263
2646,131	3,5	-0,088
2653,217	-1	-1,371
2660,284	-12	-3,492
2667,358	0	-1,399
2674,438	4	-0,001
2681,571	-7,5	-3,163
2688,657	-7	-2,718
2695,742	2	-0,155
2702,834	0,5	-0,762
2709,932	-9,5	-3,39
2716,993	-5,5	-2,535
2724,073	4	-0,023
2731,153	-1	-1,592
2738,232	-12	-3,497
2745,306	0	-1,07
2752,373	4,5	0
2759,453	-4,5	-2,765
2766,538	-9	-2,894
2773,648	3,5	-0,056
2780,746	-1,5	-1,507
2787,819	-12	-3,495
2794,899	0	-1,236
2801,978	4	-0,001
2809,058	-5	-2,808
2816,15	-10,5	-3,012
2823,235	1,5	-0,143
2830,303	-0,5	-1,146
2837,418	-12	-3,492
2844,51	-1	-1,636
2851,602	4	-0,001
2858,669	-3,5	-2,535
2865,749	-11	-3,318
2872,834	2	-0,218
2879,902	1,5	-0,664
2886,993	-10	-3,44
2894,073	-2	-2,064
2901,177	4	-0,003
2908,25	-2,5	-2,188
2915,318	-10,5	-3,5
2922,397	1	-0,485
2929,465	0,5	-0,731
2936,533	-10	-3,466
2943,618	-2	-2,011
2950,692	4	-0,002
2957,801	-3,5	-2,582
2964,869	-9	-3,124
2971,973	2,5	-0,126
2979,058	-0,5	-1,15
2986,126	-9,5	-3,478
2993,661	3,5	-0,052
3000,747	-1	-1,362
3007,839	-10	-3,49
3014,924	-0,5	-1,78
3021,98	4	-0,011
3029,071	-1	-1,586
3036,133	-9,5	-3,494
3043,207	-0,5	-1,785
3050,268	4	-0,004
3057,348	-2	-2,106
3064,415	-9,5	-3,498
3071,495	0	-1,114
3078,599	3,5	-0,355
3085,708	-8,5	-3,442
3092,842	-1	-2,022
3099,915	4	-0,013
3107,007	-1,5	-1,972
3114,087	-9	-3,498
3121,178	0,5	-1,08
3128,27	4,5	-0,001
3135,343	-3	-2,627
3142,411	-9	-3,499
3149,526	0,5	-0,795
3156,618	2	-0,497
3163,686	-7,5	-3,405
3170,783	-2	-2,291
3177,851	4	-0,011
3184,913	-0,5	-1,693
3191,998	-9	-3,497
3199,066	0	-1,486
3206,127	4	-0,004
3213,207	-1,5	-2,037
3220,274	-8,5	-3,499
3227,348	0,5	-0,941
3234,416	4	0
3238,741	4	0

File: _3.txt
Time (s)	Load (N)	Displacement (mm)
0	0	-0,041
2,131	1,5	-0,108
4,369	-2,5	-0,73
6,612	-8,5	-1,36
8,844	-13	-1,898
11,086	-19	-2,666
13,788	-31,5	-3,244
16,014	-24	-2,67
18,186	-22	-2,299
20,394	-18	-1,818
22,698	-5	-0,802
24,924	0	-0,25
27,107	1,5	-0,071
29,285	2,5	-0,032
31,433	2,5	-0,018
33,647	3	-0,004
35,807	3	-0,001
37,991	3	-0,027
40,144	1,5	-0,37
42,742	-19,5	-2,781
44,896	-19,5	-3,05
47,11	-28	-3,427
49,24	-28,5	-3,46
51,418	-29,5	-3,49
53,632	-29,5	-3,497
55,75	-29,5	-3,498
57,904	-29,5	-3,499
59,973	-29,5	-3,498
62,085	-29,5	-3,498
64,251	-29	-3,499
66,411	-29	-3,466
68,57	-29	-3,192
71,151	-4,5	-0,879
73,293	-3	-0,706
75,423	-1,5	-0,539
77,552	-1	-0,424
79,628	-1,5	-0,585
81,668	-4,5	-0,884
83,762	-4,5	-0,995
85,874	-5	-0,998
87,908	-7,5	-1,314
90,002	-7,5	-1,364
92,072	-9,5	-1,505
94,165	-9	-1,449
96,322	-7	-1,359
98,461	-5	-1,133
100,537	-6,5	-1,312
103,099	3,5	-0,005
105,223	3,5	-0,003
107,323	3	-0,005
109,453	3,5	-0,004
111,535	3,5	-0,006
113,64	3,5	-0,006
115,824	3,5	-0,002
117,936	3,5	-0,001
120,066	3,5	-0,001
122,16	3,5	-0,002
124,296	3,5	-0,001
208,124	-3	-0,928
210,211	-3,5	-1,049
212,203	-8	-1,535
214,201	-14,5	-2,147
216,27	-15,5	-2,354
218,286	-22	-2,813
220,314	-26,5	-3,252
222,318	-26	-3,499
224,383	-26,5	-3,498
226,458	-26,5	-3,496
228,528	-26	-3,494
230,49	-24,5	-3,434
232,488	-17,5	-3,073
234,546	-16	-2,916
236,627	-14,5	-2,772
238,691	-13	-2,513
240,731	-9,5	-2,128
242,79	-7,5	-1,843
244,876	-6	-1,708
246,935	-5	-1,436
248,963	-2,5	-1,017
251,051	-1,5	-0,851
253,108	1	-0,523
255,178	3,5	-0,237
257,219	3,5	0
259,234	3,5	-0,003
261,31	3,5	-0,007
263,38	3,5	-0,012
265,816	2,5	-0,468
267,892	3,5	-0,271
269,877	3,5	-0,001
271,917	3,5	-0,004
273,915	3,5	-0,024
275,943	2	-0,095
277,989	0,5	-0,308
280,041	-1,5	-0,67
282,045	-5,5	-1,284
284,073	-8,5	-1,669
286,082	-13,5	-2,13
366,142	-22	-2,99
368,14	-24,5	-3,5
370,126	-24,5	-3,496
372,093	-24	-3,468
374,091	-19	-3,254
376,101	-14	-2,695
378,105	-9,5	-2,189
380,079	-5	-1,532
382,083	-3	-1,052
384,099	1	-0,616
386,061	3,5	-0,001
388,017	3,5	-0,006
389,979	2,5	-0,109
391,947	-1	-0,71
393,902	-5,5	-1,406
395,894	-11,5	-2,05
397,88	-17	-2,581
399,896	-23	-3,03
401,87	-24,5	-3,499
479,385	-9	-2,307
481,36	-5	-1,569
483,309	-0,5	-0,809
485,241	4	-0,001
487,642	-3,5	-1,294
489,585	3	-0,481
491,529	4	-0,001
493,485	4	-0,015
495,428	1,5	-0,194
497,378	-2,5	-1,04
499,298	-9,5	-1,967
501,236	-18	-2,788
503,186	-24	-3,5
505,106	-24	-3,49
507,044	-20	-3,36
508,976	-12,5	-2,665
510,896	-6	-1,754
512,804	-0,5	-0,82
514,712	4	-0,001
553,775	-24	-3,5
555,689	-24	-3,49
557,633	-20,5	-3,372
559,553	-11	-2,607
561,491	-5	-1,65
563,387	2	-0,533
565,312	4	-0,002
567,238	3,5	-0,029
569,158	0,5	-0,444
571,066	-5,5	-1,404
573,418	1,5	-0,202
575,344	-2,5	-1,094
577,282	-9	-1,957
579,19	-20,5	-3,018
581,092	-23,5	-3,497
583,03	-23	-3,47
584,949	-14	-3,008
586,863	-6	-1,918
588,783	-1,5	-0,961
590,715	4	-0,143
592,653	4	-0,005
594,585	3	-0,074
596,505	-1	-0,763
598,401	-6,5	-1,774
600,332	-16	-2,665
602,264	-23,5	-3,5
604,184	-22,5	-3,488
606,098	-18	-3,286
608,006	-9	-2,277
609,92	-3,5	-1,305
611,828	3,5	-0,262
613,76	4	-0,004
615,698	3,5	-0,041
617,618	0	-0,56
619,963	4	-0,018
621,919	1	-0,244
623,833	-3	-1,177
625,729	-12	-2,265
627,631	-23	-3,36
703,407	-21,5	-3,454
705,32	-13,5	-2,862
707,216	-5	-1,783
709,136	0	-0,772
711,032	4	-0,001
712,934	4	-0,028
714,884	0,5	-0,384
716,768	-5	-1,56
718,688	-14,5	-2,518
721,034	-4,5	-1,395
722,965	-11,5	-2,262
724,861	-22,5	-3,321
726,799	-22,5	-3,495
728,701	-19,5	-3,376
730,615	-9	-2,47
732,541	-3,5	-1,467
734,449	3	-0,436
736,369	4	-0,002
738,271	3	-0,072
740,185	-1	-0,863
742,116	-7	-1,82
744,042	-17,5	-2,78
745,974	-22,5	-3,499
747,882	-22,5	-3,479
749,796	-14,5	-2,998
751,716	-6,5	-2,103
753,624	-2	-1,106
755,568	4	-0,249
757,494	4	-0,004
759,413	3	-0,09
761,315	-1,5	-0,974
763,223	-8,5	-1,993
765,155	-18	-2,896
767,087	-22,5	-3,499
768,995	-22	-3,469
770,915	-13,5	-2,906
772,829	-5,5	-1,918
775,198	-16,5	-3,223
850,794	4	0
852,702	4	-0,012
854,622	1,5	-0,233
856,542	-2,5	-1,185
858,474	-8,5	-2,035
860,388	-20,5	-2,992
862,277	-22,5	-3,496
864,191	-20,5	-3,428
866,117	-12	-2,784
867,995	-3,5	-1,514
869,891	3	-0,397
871,823	4	-0,002
873,731	3,5	-0,056
875,645	-0,5	-0,77
877,547	-8,5	-1,969
879,484	-19	-2,911
881,416	-22,5	-3,499
883,324	-21,5	-3,478
885,244	-14	-3,061
887,176	-6,5	-2,142
889,09	-2,5	-1,159
890,992	4	-0,084
892,93	4	-0,006
894,85	2,5	-0,128
896,746	-2,5	-1,111
898,63	-10	-2,234
900,549	-21	-3,166
902,469	-22	-3,497
904,389	-20,5	-3,431
906,303	-10,5	-2,66
908,211	-4,5	-1,668
910,143	0	-0,76
912,051	4,5	-0,001
913,965	4	-0,032
915,89	0,5	-0,45
917,798	-4,5	-1,57
919,707	-13,5	-2,558
921,638	-22	-3,488
923,54	-22	-3,49
925,472	-18	-3,326
927,362	-7,5	-2,269
929,27	-2,5	-1,203
931,196	4	-0,201
933,109	4,5	-0,005
935,011	2,5	-0,15
936,919	-2,5	-1,172
938,839	-9,5	-2,142
940,723	-22	-3,257
942,631	-22	-3,494
944,539	-18	-3,362
946,435	-8	-2,346
948,343	-3	-1,323
950,238	4	-0,214
952,206	4	-0,002
954,12	3,5	-0,048
956,064	0	-0,595
958,008	-4	-1,492
959,91	-14	-2,595
1145,317	-21	-3,483
1147,201	-13	-3,032
1149,121	-5,5	-2,068
1151,035	-1,5	-1,053
1152,925	4	-0,071
1154,827	4	-0,011
1156,729	1	-0,27
1158,631	-2,5	-1,299
1160,527	-12	-2,368
1162,452	-21	-3,274
1164,372	-21	-3,496
1166,274	-19,5	-3,417
1168,17	-10,5	-2,724
1170,108	-4	-1,721
1172,004	1	-0,69
1173,918	4	-0,001
1175,814	4	-0,037
1177,722	0	-0,584
1180,103	4	-0,01
3145,501	-3	-2,916
3147,385	-1	-1,776
3149,275	1	-0,764
3151,153	4	-0,002
3153,037	3,5	-0,05
3154,915	0,5	-0,9
3156,792	-0,5	-1,994
3158,682	-7,5	-3,003
3160,566	-9	-3,497
3162,444	-6,5	-3,408
3164,328	-2	-2,453
3165,93	4	0

File: _4.txt
Time (s)	Load (N)	Displacement (mm)
0	1	-0,04
8,405	3	-0,001
16,841	3	-0,002
25,675	-7,5	-1,481
33,898	3	-0,248
42,352	3,5	-0,109
50,385	0	-0,264
58,947	2,5	-0,066
67,004	-10,5	-1,685
74,99	-28	-3,497
83,161	-20,5	-3,113
213,354	3	-0,073
221,075	-25	-3,499
228,725	-2	-1,049
236,411	-4,5	-1,242
244,498	-25	-3,242
252,243	-7,5	-2,043
259,989	3	-0,07
267,639	-25	-3,498
275,732	-17,5	-3,189
283,379	4	-0,01
290,947	-24,5	-3,499
298,489	2,5	-0,45
306,043	-17	-2,508
314,1	-24	-3,488
321,665	4	-0,001
367,587	-3	-1,085
375,014	-13	-2,809
382,478	0	-0,439
389,887	-17	-3,206
397,375	3	-0,086
442,685	-9,5	-2,345
450,094	-4,5	-1,306
457,486	-8	-2,178
464,913	-5	-1,391
472,269	-5,5	-1,839
479,571	-14	-2,336
486,848	2,5	-0,515
494,083	-23,5	-3,499
501,361	4	-0,006
508,669	-23	-3,467
515,886	0	-0,623
560,584	1,5	-0,18
567,795	-9,5	-2,382
574,983	-13,5	-2,398
582,212	4	-0,248
589,412	-23	-3,495
596,6	1,5	-0,212
603,799	-9	-2,335
611,035	-10,5	-2,138
618,181	4	-0,134
625,386	-22,5	-3,491
632,634	2	-0,098
639,857	-8,5	-2,407
647,027	-12,5	-2,316
654,196	4	0
661,408	-22,5	-3,485
705,625	-5,5	-1,943
712,772	-22,5	-3,09
719,941	4	-0,01
727,104	-15	-3,148
734,274	-6,5	-1,749
741,503	0	-0,77
748,667	-22	-3,497
755,861	2	-0,166
763,018	-5,5	-2,026
770,176	-16,5	-2,778
887,907	-19	-3,372
895,095	-2	-1,156
902,24	-2	-1,178
909,422	-21,5	-3,338
916,651	4,5	-0,004
923,809	-18,5	-3,376
931,008	-1	-1,012
938,148	-2,5	-1,17
945,294	-21,5	-3,499
952,457	4,5	-0,025
959,627	-13	-2,927
1150,842	-0,5	-0,92
1157,976	-21	-3,498
1165,157	4	-0,031
1172,303	-9,5	-2,703
1179,406	-11	-2,301
1186,534	4,5	-0,027
1193,656	-20	-3,474
1200,765	-0,5	-0,841
1207,935	-3	-1,448
1215,074	-20,5	-3,225
1222,208	4,5	-0,006
1229,324	-15,5	-3,339
1236,439	-3	-1,302
1243,579	-1,5	-1,183
1250,688	-20,5	-3,499
1257,81	4	-0,056
1265,004	-12,5	-2,951
1272,071	-8,5	-2,02
1279,211	3,5	-0,444
1286,32	-20,5	-3,494
1732,281	-13,5	-2,659
1739,373	4,5	-0,001
1746,494	-18,5	-3,452
1753,585	-0,5	-0,964
1760,653	-2,5	-1,321
1767,751	-19,5	-3,5
1774,854	4	-0,021
1781,91	-9	-2,686
1788,971	-8,5	-2,274
1796,039	4,5	0
1803,089	-18	-3,434
1810,15	-1,5	-1,204
1817,212	-1	-0,934
1824,268	-19,5	-3,497
1831,323	1,5	-0,264
1838,427	-5,5	-2,205
1845,501	-13	-2,556
1852,55	4,5	-0,003
1859,605	-15,5	-3,346
1866,679	-4,5	-1,683
1873,723	4	-0,424
1880,784	-19,5	-3,49
1887,834	0	-0,802
1894,901	-1,5	-1,255
1901,951	-19	-3,499
1909,007	3,5	-0,095
1916,062	-5,5	-2,16
1923,124	-13,5	-2,81
1930,174	4,5	-0,004
1937,242	-12,5	-3,102
1944,315	-3,5	-1,61
1951,359	1,5	-0,591
1958,426	-19	-3,493
1965,559	2,5	-0,208
1972,651	-4,5	-2,062
1979,749	-12	-2,638
1986,822	4,5	-0,001
1993,878	-18,5	-3,466
2000,951	0	-0,811
2008,025	-2	-1,329
2015,087	-19	-3,5
2022,154	4	-0,041
2029,216	-8	-2,582
2036,313	-6,5	-2,023
2043,363	4,5	-0,096
2050,419	-18,5	-3,467
2057,486	-0,5	-0,94
2064,542	-1,5	-1,285
2071,586	-18,5	-3,462
2078,641	4,5	-0,022
2085,703	-9,5	-2,845
2092,776	-4,5	-1,934
2099,862	2,5	-0,532
2106,965	-18,5	-3,496
2114,039	3	-0,137
2121,089	-5	-2,199
2128,174	-9	-2,364
2135,23	4,5	-0,001
2142,279	-15	-3,412
2149,317	-3	-1,565
2156,378	3	-0,567
2163,428	-18	-3,491
2170,508	0,5	-0,594
2177,581	-2	-1,556
2184,625	-17,5	-3,5
2191,674	4	-0,062
2198,73	-5	-2,327
2205,786	-12,5	-2,784
2212,829	4,5	-0,006
2219,873	-10	-3,005
2226,965	-4,5	-1,916
2234,032	4,5	-0,12
2241,124	-17	-3,476
2248,234	0	-0,709
2255,379	-2,5	-1,741
2262,41	-17,5	-3,372
2269,508	4,5	-0,016
2276,564	-7,5	-2,687
2283,619	-8	-2,419
2290,657	4,5	-0,003
2297,712	-10,5	-3,146
2304,786	-4	-1,875
2311,842	4,5	-0,095
2318,891	-16	-3,462
2325,947	-1	-1,232
2333,014	0,5	-0,831
2340,07	-17	-3,496
2347,138	1	-0,59
2354,181	-1,5	-1,383
2361,249	-16,5	-3,486
2368,329	4,5	-0,024
2375,39	-6	-2,619
2382,434	-7	-2,378
2389,537	4,5	0
2396,605	-16	-3,474
2403,69	0	-0,725
2410,782	-2,5	-1,605
2417,838	-16,5	-3,352
2424,887	4	-0,029
2431,949	-8,5	-2,822
2439,07	-3	-1,816
2446,15	1	-0,63
2453,23	-16	-3,496
2460,297	2	-0,299
2467,353	-3	-1,995
2474,402	-11,5	-2,88
2481,452	4,5	-0,005
2488,502	-9	-3,207
2495,557	-2	-1,691
2502,631	1	-0,645
2509,674	-14	-3,494
2516,73	2	-0,349
2523,773	-2,5	-1,765
2530,841	-11,5	-2,98
2537,897	4,5	-0,009
2544,952	-7,5	-3,015
2552,05	-2	-1,882
2559,123	3	-0,46
2566,191	-13	-3,494
2573,235	1,5	-0,442
2580,29	-2	-1,804
2587,364	-9,5	-3,031
2594,408	4,5	-0,011
2601,469	-6	-3,072
2608,549	-1,5	-1,745
2615,592	4,5	-0,253
2622,648	-12	-3,487
2629,739	1	-0,715
2636,819	-1,5	-1,571
2643,881	-11,5	-3,194
2650,954	4,5	-0,011
2658,028	-6	-3,093
2665,078	-0,5	-1,585
2672,127	2,5	-0,604
2679,207	-12	-3,496
2686,256	3	-0,145
2693,33	-2,5	-2,32
2700,379	-4,5	-2,449
2707,429	4,5	-0,001
2714,491	-9,5	-3,434
2721,546	0	-1,073
2728,602	0	-1,078
2735,652	-11,5	-3,498
2742,713	3,5	-0,076
2749,757	-3	-2,347
2756,866	-2,5	-2,116
2763,922	4,5	-0,085
2771,007	-11	-3,487
2778,051	0,5	-0,874
2785,131	-1	-1,551
2792,198	-11	-3,276
2799,296	4,5	-0,007
2806,381	-6	-3,229
2813,431	-0,5	-1,655
2820,487	2,5	-0,506
2827,548	-10	-3,496
2834,61	1,5	-0,516
2841,719	-1,5	-1,866
2848,769	-10	-3,235
2855,855	4	-0,016
2862,922	-4,5	-2,834
2870,008	-1,5	-2,079
2877,063	4,5	0
2884,131	-9	-3,437
2891,169	0	-1,599
2898,236	3	-0,541
2905,274	-9,5	-3,486
2912,317	0,5	-0,887
2919,367	-0,5	-1,132
2926,44	-9,5	-3,498
2933,496	2	-0,152
2940,6	-2	-2,111
2947,649	-6,5	-2,956
2954,723	4,5	-0,008
2961,779	-5	-3,006
2968,834	-1,5	-2,122
2975,878	4,5	-0,001
2982,951	-8	-3,431
2990,001	0	-1,308
2997,069	1,5	-0,678
3004,124	-9,5	-3,494
3011,162	1,5	-0,616
3018,223	-0,5	-1,533
3025,309	-9,5	-3,372
3032,37	4,5	-0,023
3039,426	-2,5	-2,5
3046,506	-3	-2,529
3053,579	4,5	-0,003
3060,635	-5,5	-3,214
3067,702	-0,5	-1,879
3074,752	4,5	-0,13
3081,814	-8,5	-3,464
3088,864	0	-1,404
3095,913	2,5	-0,502
3102,968	-9	-3,487
3110,024	0	-1,094
3117,074	1	-0,712
3124,153	-9	-3,491
3131,209	0,5	-0,845
3138,252	0	-1,007
3145,308	-9	-3,497
3152,352	1	-0,63
3157,037	4,5	0

File: _5.txt
Time (s)	Load (N)	Displacement (mm)
0	0	-0,041
11,682	-31	-3,06
22,733	-3	-0,506
33,802	2	-0,298
168,861	3,5	-0,004
179,402	3,5	-0,002
189,98	3	-0,001
200,786	-4	-1,264
250,768	2	-0,115
260,991	-8	-1,602
271,125	-25,5	-3,5
281,264	-21	-3,317
291,248	-1,5	-0,798
301,737	0	-0,695
311,868	3,5	-0,013
321,972	-5,5	-1,195
332,514	-4,5	-1,13
342,575	-25	-3,5
352,684	-19,5	-3,242
362,679	0	-0,733
372,717	3	-0,041
382,67	-17	-2,355
392,696	-24	-3,477
402,577	-3	-1,068
412,825	3,5	-0,002
422,652	-11,5	-1,969
432,377	-16,5	-2,987
442,193	3,5	-0,002
451,936	-14,5	-2,374
461,71	-15	-2,923
471,46	3,5	-0,004
481,173	-16,5	-2,578
490,832	-8	-2,048
500,462	0	-0,378
510,025	-22,5	-3,454
519,702	4	-0,001
529,326	-15	-2,368
538,979	-11,5	-2,526
548,543	2	-0,092
558,13	-24	-3,498
567,682	0,5	-0,63
577,257	-9	-1,895
586,887	-15	-2,884
596,48	3,5	-0,026
606,074	-24	-3,354
615,673	-3	-1,197
625,332	0	-0,53
671,92	-9,5	-2,402
681,549	3	-0,056
691,155	-23,5	-3,499
700,724	-1,5	-0,87
710,282	-4,5	-1,469
719,821	-15	-2,972
729,384	3,5	-0,031
739,014	-23	-3,499
748,571	-1	-0,897
758,177	-4,5	-1,459
767,764	-16,5	-3,143
777,322	3,5	-0,016
786,867	-22,5	-3,498
796,431	2,5	-0,556
805,958	-12	-2,253
815,474	-6,5	-2,032
825,007	-0,5	-0,572
834,558	-21,5	-3,463
844,122	4	-0,001
927,289	1	-0,315
936,763	-17,5	-3,35
946,338	4	-0,005
955,902	-22	-3,184
965,501	-3	-1,316
975,503	3,5	-0,008
985,012	-22	-3,499
994,509	3,5	-0,201
1004,049	-13,5	-2,492
1013,6	-4,5	-1,628
1023,128	-3,5	-1,299
1032,643	-11,5	-2,781
1042,177	1	-0,18
1051,734	-21,5	-3,485
1061,268	4	-0,002
1070,765	-21,5	-3,497
1080,328	3	-0,339
1089,814	-17	-2,786
1099,323	-3	-1,22
1108,809	-8	-1,938
1118,318	-6,5	-2,097
1127,828	-1,5	-0,929
1137,289	-10,5	-2,702
1146,793	0,5	-0,462
1156,314	-17,5	-3,348
1165,824	3,5	-0,041
1175,339	-21,5	-3,493
1184,843	4	-0,002
1194,34	-21,5	-3,5
1203,868	1	-0,542
1213,341	-16	-2,793
1222,868	-2,5	-1,202
1232,372	-6	-1,798
1241,821	-4,5	-1,854
1251,283	-4	-1,584
1260,828	-8,5	-2,421
1270,368	0	-0,505
1279,847	-14,5	-3,186
1289,399	3	-0,059
1298,884	-21	-3,486
1308,381	4	-0,002
1317,867	-21	-3,499
1327,382	1	-0,635
1336,868	-13	-2,517
1346,389	-3	-1,43
1355,929	-4,5	-1,494
1365,438	-8	-2,376
1374,912	-1,5	-0,947
1384,919	-21	-3,438
1394,405	4	-0,175
1403,896	-16,5	-2,905
1413,358	0	-0,727
1422,855	-11,5	-2,44
1432,328	-2	-1,246
1441,808	-8	-2,006
1451,239	-3,5	-1,582
1460,719	-4,5	-1,569
1470,21	-7,5	-2,33
1479,672	-1	-0,995
1489,175	-13,5	-3,075
1498,667	2	-0,113
1508,134	-19	-3,439
1517,613	3,5	-0,026
1527,045	-19,5	-3,461
1536,53	4	-0,015
1546,004	-20,5	-3,496
1555,489	4	-0,002
1564,939	-20,5	-3,496
1574,394	4	-0,005
1583,88	-20,5	-3,496
1593,701	-2,5	-1,246
1603,205	-5,5	-1,838
1612,636	-3	-1,446
1622,091	-6,5	-1,947
1631,529	-3	-1,465
1641,003	-5,5	-1,829
1650,422	-3	-1,439
1659,859	-8	-2,149
1669,303	-2,5	-1,253
1678,728	-11,5	-2,492
1688,142	-0,5	-0,777
1697,603	-13	-2,633
1707,065	-0,5	-0,839
1716,538	-12	-2,532
1725,988	-1,5	-1,024
1735,455	-10,5	-2,415
1744,875	-1,5	-0,915
1754,3	-12,5	-2,601
1763,701	0	-0,704
1773,109	-17	-2,87
1782,504	3,5	-0,329
1791,936	-19,5	-3,169
1801,395	3	-0,48
1810,793	-19,5	-3,257
1820,206	4	-0,349
1829,638	-19,5	-3,094
1839,087	0	-0,727
1848,495	-13,5	-2,639
1857,914	-1	-0,862
1867,303	-14,5	-2,69
1876,729	-1	-0,894
1886,16	-11	-2,405
1895,586	-2	-1,178
1905,005	-13	-2,564
1914,431	-1	-0,936
1923,868	-10,5	-2,441
1933,276	-1	-0,994
1942,731	-9	-2,238
1952,151	-2	-1,342
1961,57	-7	-2,029
1970,96	-2,5	-1,424
1980,823	3,5	-0,045
1990,206	-17,5	-3,439
1999,608	3	-0,094
2009,033	-17,5	-3,458
2018,441	3,5	-0,047
2027,866	-17,5	-3,461
2037,268	4	-0,022
2046,699	-18,5	-3,482
2056,095	4	-0,016
2065,52	-18	-3,482
2074,946	4	-0,015
2084,335	-18	-3,478
2093,761	4	-0,015
2103,216	-18	-3,491
2112,63	4	-0,011
2122,079	-18	-3,494
2131,486	4	-0,006
2140,924	-18	-3,497
2150,331	4	-0,003
2159,739	-18	-3,497
2169,158	4	-0,002
2178,548	-18	-3,496
2187,949	4	-0,006
2197,363	-18	-3,493
2206,776	4	-0,005
2216,226	-18	-3,498
2225,663	4	-0,001
2235,046	-17,5	-3,498
2244,472	4	-0,002
2253,91	-17,5	-3,499
2263,293	4	-0,001
2272,73	-17,5	-3,499
2282,12	4	0
2291,515	-17,5	-3,272
2300,923	3	-0,45
2310,324	-14,5	-2,914
2319,75	1	-0,656
2329,175	-10,5	-2,558
2338,565	-0,5	-0,906
2347,96	-10	-2,581
2357,362	-1	-0,969
2366,751	-9	-2,459
2376,14	-1,5	-1,172
2385,542	-5	-2,064
2394,973	-3	-1,629
2404,375	-3,5	-1,774
2413,794	-3,5	-1,887
2423,292	-1	-1,094
2432,717	-6,5	-2,56
2442,119	-0,5	-1,04
2451,526	-5,5	-2,345
2460,952	-1	-1,014
2470,347	-6	-2,428
2479,742	-0,5	-0,953
2489,18	-7,5	-2,857
2498,623	1,5	-0,231
2508,049	-13	-3,4
2517,51	4	-0,013
2526,936	-15	-3,491
2536,367	4	-0,004
2545,775	-15	-3,496
2555,164	4	-0,006
2564,56	-14,5	-3,493
2573,997	4	-0,006
2583,399	-14	-3,497
2592,818	4	-0,001
2602,213	-14	-3,499
2611,645	4	-0,023
2621,04	-13,5	-3,304
2630,442	2	-0,492
2639,885	-7,5	-2,701
2649,287	0	-0,775
2658,676	-7	-2,74
2668,102	-0,5	-1,024
2677,545	-3	-2,109
2686,965	-2	-1,696
2696,372	-1,5	-1,667
2705,81	-2,5	-1,967
2715,229	-1	-1,504
2724,66	-3	-2,031
2734,05	-0,5	-1,432
2743,44	-2,5	-2,026
2752,859	-0,5	-1,367
2762,266	-3	-2,25
2771,674	0	-1,212
2781,069	-3	-2,132
2790,477	0	-1,263
2799,878	-3,5	-2,362
2809,274	0	-1,086
2818,699	-4,5	-2,642
2828,089	0	-0,779
2837,496	-5	-2,818
2846,892	0,5	-0,578
2856,281	-5	-2,891
2865,694	1	-0,441
2875,084	-6,5	-3,16
2884,515	1,5	-0,18
2893,923	-8,5	-3,347
2903,342	1,5	-0,189
2912,744	-7,5	-3,255
2922,145	1	-0,353
2931,535	-5,5	-3,057
2940,93	0,5	-0,519
2950,326	-5,5	-2,985
2959,727	1	-0,417
2969,123	-4,5	-2,832
2978,53	0,5	-0,694
2987,956	-5	-2,895
2997,471	1,5	-0,156
3007,058	-10,5	-3,487
3016,532	4	-0,003
3025,927	-11	-3,496
3035,341	4	-0,003
3044,772	-10,5	-3,498
3054,162	4	-0,004
3063,551	-10,5	-3,492
3072,965	4	-0,007
3082,372	-10,5	-3,493
3091,779	4	-0,006
3101,205	-10,5	-3,496
3110,601	4	-0,004
3120,008	-10,5	-3,495
3129,415	4	-0,005
3137,935	4	-0,001