Folder: Data-filter--cyclical-tests-BEPE-project-/Cycling_tests/_40perc/_2gap/entrada

Note: README.md
# Data filter (cyclical tests BEPE project)
python aplication to treat data get by fatigue testing machine

File: _1.txt
Time (s)	Load (N)	Displacement (mm)
0	0	-0,035
10,115	-4	-0,758
20,01	-21,5	-3,492
29,914	-2	-0,858
39,843	-0,5	-0,405
49,784	-20,5	-3,325
59,714	-10	-2,502
69,655	2	-0,005
79,573	-11,5	-2,234
89,532	-18,5	-3,455
99,48	0	-0,655
109,409	-0,5	-0,496
119,344	-19	-3,5
129,28	-5	-1,767
139,239	0	-0,248
149,205	-18,5	-3,5
159,164	-6,5	-2,151
169,087	2,5	-0,004
179,065	-9,5	-2,173
189	-15,5	-3,377
198,948	2,5	0
208,937	-3	-1,313
218,903	-18	-3,493
228,862	-1,5	-0,953
238,821	-0,5	-0,66
248,775	-17,5	-3,498
258,728	-4	-1,721
268,676	2,5	-0,036
278,629	-14	-2,82
288,601	-11	-3,017
298,578	2,5	-0,003
308,556	-2,5	-1,218
318,521	-17	-3,492
328,486	-2,5	-1,335
338,434	0,5	-0,237
348,393	-16	-3,172
358,377	-9	-2,745
368,342	3	-0,002
378,301	-4	-1,556
388,267	-16,5	-3,488
398,244	-2,5	-1,199
408,2	1	-0,316
418,163	-16	-3,42
428,147	-6,5	-2,39
474,338	-0,5	-0,908
484,303	1	-0,243
494,257	-15,5	-3,309
504,216	-6	-2,474
514,17	3	-0,002
524,129	-5	-1,896
534,083	-14	-3,417
544,042	3	-0,358
553,989	-2,5	-1,303
563,937	-15,5	-3,486
573,884	0	-0,718
583,838	-0,5	-0,92
593,779	-15	-3,496
603,745	-3	-1,587
613,686	1,5	-0,091
623,633	-14	-3,02
633,593	-7,5	-2,706
643,546	3	-0,001
653,494	-2,5	-1,416
663,453	-15	-3,494
673,395	-2	-1,347
683,372	2,5	-0,056
693,313	-10	-2,636
703,267	-12,5	-3,328
713,256	0	-0,843
723,192	0	-0,512
733,127	-15	-3,492
743,069	-6	-2,482
753,016	3	-0,001
762,969	-2	-1,426
772,923	-15	-3,497
782,858	-3,5	-1,911
792,812	3	-0,007
802,759	-4	-1,865
812,708	-15	-3,478
822,66	-1,5	-1,191
832,608	2	-0,085
842,555	-9	-2,486
852,484	-13	-3,401
862,432	-0,5	-0,881
872,373	1	-0,282
882,315	-15	-3,183
892,256	-8	-2,824
902,186	3	0
912,127	-1,5	-1,18
922,068	-15	-3,496
932,016	-3	-1,795
941,951	3	-0,022
951,893	-6	-2,245
961,828	-13,5	-3,418
971,764	0	-0,81
981,705	1	-0,227
991,646	-12	-3,025
1001,576	-8	-2,88
1011,505	3	0
1021,435	-1	-1,094
1031,382	-14,5	-3,499
1041,312	-3,5	-2,066
1051,253	3	-0,006
1061,194	-3	-1,658
1071,142	-14,5	-3,491
1081,083	-1,5	-1,36
1091,025	2,5	-0,045
1100,966	-7,5	-2,436
1110,896	-13	-3,433
1120,843	-1,5	-1,164
1166,968	-1,5	-1,383
1176,892	2,5	-0,042
1186,821	-8,5	-2,568
1196,751	-9,5	-3,232
1206,692	1,5	-0,529
1216,622	0,5	-0,474
1226,557	-12,5	-3,028
1236,48	-8	-2,968
1246,416	2	-0,44
1256,351	0,5	-0,409
1266,287	-14	-3,232
1276,216	-7	-2,797
1286,152	3	-0,026
1296,081	-0,5	-1,004
1306,016	-14	-3,498
1315,952	-3	-1,954
1325,887	3	-0,007
1335,811	-3	-1,807
1345,752	-13,5	-3,477
1355,694	-1	-1,366
1365,635	2	-0,05
1375,552	-9,5	-2,723
1385,494	-9	-3,121
1395,423	2,5	-0,322
1405,365	0	-0,667
1415,294	-13,5	-3,5
1425,23	-4	-2,262
1435,165	3	-0,005
1445,1	-4,5	-2,03
1455,054	-13,5	-3,471
1464,983	-1	-1,052
1474,919	2	-0,092
1521,038	0,5	-0,42
1530,986	-13,5	-3,31
1540,927	-5	-2,532
1550,856	3	-0,001
1560,798	-2,5	-1,473
1570,739	-14	-3,493
1580,681	-1,5	-1,366
1590,622	2,5	-0,052
1600,564	-10,5	-2,781
1610,493	-7	-2,872
1620,422	3	-0,001
1630,352	-2	-1,612
1640,281	-13,5	-3,492
1650,205	-1	-1,352
1660,14	2	-0,091
1670,07	-12	-3,071
1680,005	-6	-2,73
1689,935	3	-0,002
1699,858	-3,5	-1,785
1709,787	-13	-3,466
1719,711	-0,5	-0,871
1729,652	1	-0,271
1739,588	-13,5	-3,39
1749,523	-5	-2,5
1759,459	3	-0,002
1769,394	-2,5	-1,628
1779,311	-12,5	-3,46
1789,241	-0,5	-1,073
1799,182	1,5	-0,134
1809,106	-12	-3,054
1819,035	-5,5	-2,622
1828,965	3	-0,001
1838,888	-1,5	-1,324
1848,829	-13	-3,497
1858,759	-2,5	-1,902
1868,7	3	-0,006
1878,63	-3	-1,924
1924,713	-12	-3,079
1934,643	-5,5	-2,751
1944,584	3	-0,001
1954,513	-2	-1,625
1964,431	-12,5	-3,479
1974,372	-0,5	-1,034
1984,302	1	-0,308
1994,237	-13	-3,276
2004,161	-4,5	-2,51
2014,096	3	-0,001
2024,025	-1,5	-1,45
2033,955	-12,5	-3,49
2043,878	-1	-1,329
2053,814	2	-0,083
2063,743	-6,5	-2,499
2073,667	-9	-3,296
2083,59	2,5	-0,403
2093,507	-0,5	-1,058
2103,437	-12,5	-3,498
2113,366	-2	-1,815
2123,284	2,5	-0,054
2133,207	-9	-2,776
2143,131	-6,5	-3,046
2153,066	3	-0,103
2163,001	-0,5	-1,221
2172,931	-12	-3,492
2182,86	-0,5	-1,206
2192,784	1,5	-0,226
2202,713	-12	-3,364
2212,643	-4	-2,365
2222,56	3	-0,008
2232,484	-4,5	-2,189
2242,413	-9	-3,337
2252,354	3	-0,279
2262,284	-0,5	-1,168
2272,207	-11,5	-3,494
2282,125	-0,5	-1,183
2292,072	1	-0,247
2301,996	-12	-3,494
2311,919	-2,5	-2,005
2321,849	3	-0,012
2331,772	-6	-2,606
2341,701	-5,5	-2,787
2351,637	3	-0,001
2361,56	-0,5	-1,214
2371,49	-11,5	-3,498
2381,419	-3	-2,184
2391,348	3	-0,002
2401,266	-1	-1,456
2411,195	-11,5	-3,495
2421,125	-1,5	-1,538
2431,036	2	-0,093
2440,96	-10	-3,089
2450,895	-3	-2,181
2460,812	2,5	-0,046
2470,748	-9,5	-2,972
2480,671	-5	-2,822
2490,601	3	-0,001
2500,524	-1,5	-1,769
2510,448	-8	-3,307
2520,377	2,5	-0,319
2530,301	0	-1,009
2540,224	-11,5	-3,498
2550,147	-1,5	-1,68
2560,077	2,5	-0,052
2570	-10	-2,984
2579,93	-3,5	-2,436
2589,853	3	-0,011
2599,777	-7,5	-2,718
2609,706	-7	-3,214
2619,629	2,5	-0,376
2629,565	0	-0,782
2639,482	-11	-3,498
2649,4	-2	-2,098
2659,329	3	-0,029
2669,253	-9	-2,934
2679,188	-4	-2,618
2689,111	3	-0,023
2699,035	-9	-2,9
2708,958	-3	-2,383
2718,882	3	-0,016
2728,799	-3	-2,117
2738,717	-9,5	-3,424
2748,634	2,5	-0,443
2758,563	0	-1,191
2768,493	-10,5	-3,498
2778,422	-1,5	-1,985
2788,334	3	-0,009
2798,251	-4	-2,321
2808,175	-6,5	-3,18
2818,104	3	-0,136
2828,021	0	-1,136
2837,939	-10,5	-3,495
2847,868	-0,5	-1,4
2857,798	2	-0,108
2867,721	-8,5	-3,068
2877,651	-3,5	-2,645
2887,568	3	-0,002
2897,485	-1,5	-1,902
2907,409	-9	-3,469
2917,314	0	-0,821
2927,238	1,5	-0,382
2937,161	-8,5	-3,433
2947,079	-1,5	-2,024
2956,996	3	-0,014
2966,914	-2,5	-2,337
2976,837	-5,5	-3,354
2986,754	2,5	-0,355
2996,678	0,5	-0,801
3042,737	-1	-2,021
3052,661	-7	-3,449
3062,59	0	-1,082
3072,52	2	-0,1
3082,443	-4,5	-2,78
3092,36	-3,5	-3,058
3102,29	3	-0,148
3112,213	0	-0,951
3122,137	-7,5	-3,498
3132,06	-1,5	-2,09
3141,984	2,5	-0,028
3151,907	-3	-2,578
3161,178	3	-0,001

File: _4.txt
Time (s)	Load (N)	Displacement (mm)
0	0	-0,034
10,816	-5	-1,261
21,406	-6,5	-1,68
32,019	-6	-1,664
42,638	-3	-1,09
53,228	1,5	-0,272
63,829	2	-0,162
74,437	0	-0,585
85,068	-5	-1,475
95,705	-9	-2,226
106,343	-11	-2,684
117,01	-17,5	-3,374
127,666	-19,5	-3,489
138,303	-19,5	-3,499
148,958	-19,5	-3,252
159,584	-16,5	-2,934
170,221	-11	-2,217
180,871	-5	-1,498
191,556	-0,5	-0,59
202,223	2	-0,046
212,855	2,5	-0,012
223,504	3	-0,001
234,159	0	-0,697
244,803	-4	-1,543
255,464	-7	-2,181
266,126	-11,5	-2,91
276,751	-15,5	-3,361
287,4	-18,5	-3,486
298,086	-18,5	-3,498
308,759	-17	-3,045
319,415	-10,5	-2,365
330,07	-5,5	-1,581
340,737	-2	-0,979
351,399	1	-0,18
362,06	3	-0,028
372,674	3	-0,007
383,323	3	-0,001
393,961	2,5	-0,195
404,58	0	-0,815
415,229	-3,5	-1,541
425,86	-4,5	-1,934
436,492	-7,5	-2,451
447,141	-12,5	-3,22
457,779	-16,5	-3,452
468,416	-17,5	-3,488
479,059	-17,5	-3,499
489,691	-17,5	-3,5
500,328	-13	-2,772
510,96	-11	-2,494
521,585	-6,5	-1,96
532,216	-4,5	-1,603
542,848	-1,5	-0,981
553,473	-0,5	-0,675
564,099	0,5	-0,359
574,718	2	-0,078
585,337	2,5	-0,021
595,963	2,5	-0,008
606,588	3	-0,003
617,208	3	-0,001
627,827	2,5	-0,001
638,446	3	-0,001
649,054	3	-0,001
659,667	3	-0,001
670,298	3	-0,002
680,924	3	-0,002
691,561	3	-0,003
702,193	3	-0,003
712,806	2,5	-0,002
723,425	3	-0,001
734,045	3	-0,001
744,67	3	-0,001
755,29	3	0
765,915	2	-0,35
776,54	0	-0,672
787,16	-1	-1,023
797,779	-3	-1,666
808,399	-4	-1,942
819,03	-7	-2,56
829,637	-9,5	-3,03
840,251	-15	-3,431
850,876	-16	-3,49
861,496	-16	-3,499
872,109	-16	-3,499
882,722	-16	-3,5
893,342	-16	-3,482
903,943	-16	-3,492
914,545	-15,5	-3,5
925,164	-16	-3,295
935,795	-15	-3,077
946,409	-13,5	-2,899
957,034	-12	-2,802
967,654	-9,5	-2,563
978,267	-12,5	-2,807
988,88	-10	-2,592
999,5	-8	-2,354
1010,107	-7,5	-2,192
1020,726	-6	-2,08
1031,34	-5	-1,829
1041,953	-3	-1,488
1052,573	-2,5	-1,394
1063,192	-1,5	-1,103
1073,793	0	-0,746
1084,407	0	-0,559
1095,02	1,5	-0,147
1105,622	2	-0,065
1116,229	3	-0,034
1126,836	3	-0,016
1137,45	3	-0,01
1148,057	3	-0,006
1158,671	3	-0,003
1169,29	3	-0,002
1179,903	3	-0,001
1190,517	3	-0,001
1201,13	3	-0,001
1211,738	3	-0,002
1222,345	3	-0,004
1232,952	3	-0,008
1243,566	3	-0,009
1254,173	3	-0,021
1264,787	3	-0,032
1275,388	2,5	-0,022
1285,995	3	-0,006
1296,609	3	-0,001
1307,222	3	0
1317,829	3	-0,214
1328,437	3	-0,227
1339,044	3	-0,285
1349,652	2,5	-0,445
1360,253	1,5	-0,562
1370,866	0	-0,817
1381,462	-0,5	-0,926
1392,075	-1,5	-1,166
1402,677	-2	-1,416
1413,278	-3	-1,713
1423,885	-4	-1,987
1434,487	-5,5	-2,342
1445,094	-5,5	-2,34
1455,708	-5	-2,267
1466,315	-6	-2,51
1476,922	-8	-2,795
1487,536	-11,5	-3,316
1498,131	-13,5	-3,412
1508,733	-13	-3,41
1519,34	-15	-3,48
1529,947	-13,5	-3,424
1540,549	-9,5	-3,062
1551,156	-7	-2,625
1561,764	-5,5	-2,41
1572,365	-6	-2,521
1583,056	-6	-2,465
1593,664	-3,5	-2,006
1604,265	-3	-1,792
1614,867	-4	-2,006
1625,468	-4,5	-2,238
1636,063	-4	-2,076
1646,671	-2	-1,515
1657,272	0	-0,748
1667,873	3	-0,036
1678,475	3	-0,002
1689,07	3	-0,002
1699,678	3	-0,002
1710,279	3	-0,001
1720,88	3	-0,001
1731,482	3	-0,005
1742,089	3	-0,005
1752,691	3	-0,006
1763,292	3	-0,009
1773,893	3	-0,004
1784,495	3	-0,004
1795,102	3	-0,002
1805,692	3	-0,002
1816,293	3	-0,003
1826,894	3	-0,003
1837,502	3	-0,002
1848,103	3	-0,001
1858,705	3	-0,036
1869,312	3	0
1879,913	3	-0,001
1890,515	3	-0,002
1901,116	3	-0,004
1911,712	3	-0,01
1922,319	2,5	-0,026
1932,926	3	-0,01
1943,528	3	-0,005
1954,129	3	-0,008
1964,737	2,5	-0,024
1975,332	2,5	-0,022
1985,933	3	-0,018
1996,529	3	-0,006
2007,136	3	-0,001
2017,731	2,5	-0,027
2028,327	1,5	-0,456
2038,928	-1	-0,94
2049,536	-1,5	-1,107
2060,131	-1,5	-1,342
2070,75	-2	-1,54
2081,346	-0,5	-0,886
2091,953	3	-0,018
2102,543	3	-0,003
2113,138	2,5	-0,023
2123,733	2	-0,078
2134,323	1,5	-0,117
2144,924	0	-0,522
2155,514	0	-0,79
2166,109	-1	-1,176
2176,704	-2	-1,525
2187,306	-3	-1,738
2197,901	-3	-1,683
2208,497	-3	-1,799
2219,086	-5	-2,12
2229,682	-5	-2,134
2240,289	-4,5	-2,084
2250,896	-4	-1,99
2261,486	-4	-1,966
2272,081	-4	-2,013
2282,688	-4,5	-2,009
2293,296	-4,5	-1,943
2303,897	-4,5	-1,968
2314,499	-4,5	-2,065
2325,088	-5,5	-2,307
2335,695	-9	-2,692
2346,291	-13	-3,17
2356,886	-13	-3,426
2367,494	-12,5	-3,498
2378,089	-12,5	-3,498
2388,69	-12	-3,496
2399,304	-12	-3,494
2409,899	-8,5	-3,328
2420,494	-4	-2,452
2431,096	-2	-1,727
2441,691	-1,5	-1,41
2452,287	-1,5	-1,348
2462,876	-0,5	-0,995
2473,477	-0,5	-1,122
2484,073	0	-0,933
2494,662	0	-0,745
2505,27	2	-0,486
2515,871	2	-0,475
2526,466	3	-0,163
2537,074	3	-0,001
2547,669	3	-0,002
2558,271	3	-0,01
2568,872	2,5	-0,053
2579,473	1	-0,319
2590,069	1	-0,31
2600,67	0,5	-0,626
2611,272	0	-0,823
2621,861	0	-1,015
2632,456	0	-0,955
2643,058	0	-0,78
2653,647	0	-0,766
2664,249	0,5	-0,479
2674,85	1	-0,39
2685,439	1,5	-0,138
2696,041	2	-0,082
2706,642	2,5	-0,036
2717,238	3	-0,026
2727,839	2	-0,056
2738,434	2,5	-0,041
2749,03	2,5	-0,054
2759,631	2,5	-0,069
2770,22	2	-0,085
2780,816	1,5	-0,192
2791,417	0,5	-0,448
2802,013	0	-0,77
2812,614	-0,5	-1,516
2823,215	-1	-1,648
2833,805	-1,5	-1,917
2844,406	-1,5	-2,013
2855,002	-3	-2,297
2865,603	-4,5	-2,682
2876,204	-5,5	-2,848
2886,806	-7	-2,985
2897,401	-8	-3,118
2907,991	-8,5	-3,5
2918,586	-8,5	-3,498
2929,187	-8,5	-3,495
2939,789	-8,5	-3,484
2950,39	-7,5	-3,449
2960,992	-6,5	-3,403
2971,587	-4,5	-3,099
2982,188	-3,5	-2,832
2992,778	-2,5	-2,464
3003,373	-2	-2,098
3013,969	-1,5	-1,716
3024,57	-1	-1,307
3035,171	0	-0,982
3045,767	0	-0,804
3056,356	3	-0,257
3066,958	3	-0,001
3077,553	3	-0,004
3088,148	3	-0,014
3098,738	1,5	-0,088
3109,333	0,5	-0,404
3119,935	0	-0,857
3130,524	-0,5	-1,459
3141,119	-1,5	-2,096
3151,715	-3,5	-2,626
3162,31	-7,5	-3,158
3172,911	-8	-3,5
3180,369	3	-0,001