Folder: Data-filter--cyclical-tests-BEPE-project-/Cycling_tests/_20perc/_1gap/entrada

Note: README.md
# Data filter (cyclical tests BEPE project)
python aplication to treat data get by fatigue testing machine

File: _1.txt
Time (s)	Load (N)	Displacement (mm)
40,932	-1	-0,705
50,532	-28	-2,983
59,591	-3	-0,678
68,963	-6,5	-1,505
78,058	-28,5	-3,481
87,022	-24	-2,76
96,489	3	-0,001
105,428	-7,5	-1,65
114,248	-16,5	-2,761
123,632	-13,5	-1,986
132,679	3	-0,038
141,763	-2	-0,972
151,104	-28	-3,498
160,013	-19	-2,506
208,436	-5	-1,459
217,256	-14	-2,592
226,081	-25	-3,431
234,781	-26	-3,478
243,576	-26,5	-3,499
252,15	-26,5	-3,499
260,826	-26	-3,352
269,975	-0,5	-0,644
278,711	2	-0,128
326,353	3,5	-0,206
335,077	-0,5	-0,744
343,776	-3,5	-1,255
352,704	-17	-3,092
361,26	-14,5	-2,803
369,893	-16	-2,974
378,448	-16,5	-2,983
387,388	-24,5	-3,498
395,839	-24	-3,475
442,387	0	-0,676
450,906	3	-0,327
459,336	4	-0,002
467,718	4	-0,025
476,165	2,5	-0,128
484,912	4	-0,013
493,33	2	-0,176
501,717	-2,5	-1,107
510,135	-8	-1,823
556,074	3	-0,492
564,426	4	-0,004
572,873	3,5	-0,036
581,243	-1	-0,867
589,648	-9	-1,921
598,024	-22,5	-3,052
606,351	-23,5	-3,496
614,728	-19,5	-3,38
697,69	4	-0,005
705,988	0	-0,499
714,729	3,5	-0,061
723,051	-2	-1,124
731,39	-13	-2,432
814,072	3	-0,421
822,357	4	-0,008
830,637	0	-0,728
838,982	-7	-1,907
847,31	-22,5	-3,276
855,577	-22	-3,469
863,863	-7,5	-2,29
872,136	0,5	-0,713
880,404	4	-0,006
1035,627	-7,5	-2,349
1043,864	2	-0,635
1052,054	4	-0,024
1060,261	-4	-1,412
1068,469	-21,5	-3,359
1076,724	-21	-3,475
1084,944	-7	-2,239
1093,128	4	-0,241
1101,317	3	-0,088
1109,501	-7,5	-1,903
1117,732	-21,5	-3,499
1125,964	-16,5	-3,317
1134,171	-2,5	-1,354
1398,336	0	-0,77
1406,538	4,5	-0,01
1414,715	-2	-1,257
1423,301	-2	-1,248
1431,532	-20,5	-3,082
1439,794	-20,5	-3,474
1447,959	-3,5	-1,726
1456,179	4	-0,012
1464,375	2	-0,16
1472,588	-6,5	-1,998
1480,759	-20,5	-3,498
1488,967	-13,5	-3,081
1497,12	-1	-0,895
1505,334	4,5	-0,006
1513,524	-1	-0,975
1521,743	-16	-2,833
1529,945	-20	-3,482
1538,128	-5	-2,103
1546,324	4	-0,022
1554,495	1	-0,266
1562,679	-9	-2,235
1570,856	-20,5	-3,497
1579,088	-11	-2,935
1587,691	-12,5	-3,002
1595,899	-1,5	-1,07
1604,094	4	-0,006
1612,302	-0,5	-0,922
1620,492	-17,5	-2,972
1628,675	-19,5	-3,469
1636,859	-4,5	-1,993
1645,048	4	0
1653,244	1	-0,312
1661,439	-11	-2,412
1669,665	-20,5	-3,496
1677,86	-9	-2,797
1686,032	1	-0,642
1694,215	3,5	-0,024
1702,411	-3	-1,422
1710,6	-20,5	-3,314
1718,772	-16,5	-3,361
1726,949	-2	-1,218
1735,145	4	-0,004
1743,334	-0,5	-0,912
1751,542	-14	-2,765
1759,702	-19,5	-3,46
1768,167	-15	-3,285
1776,375	-2,5	-1,388
1784,564	4	-0,002
1792,748	0,5	-0,478
1800,931	-10	-2,372
1809,121	-20	-3,494
1817,286	-7	-2,412
1825,44	3,5	-0,318
1833,629	3,5	-0,044
1841,825	-3	-1,544
1850,008	-20	-3,5
1858,57	-19,5	-3,499
1866,741	-13	-3,113
1874,925	-2	-1,262
1883,084	4	-0,003
1891,238	-0,5	-0,957
1899,415	-15	-2,869
1907,587	-19,5	-3,469
1915,747	-5	-2,071
1923,888	4	-0,001
1932,066	2,5	-0,136
1940,249	-5	-1,911
1948,421	-19,5	-3,498
1956,574	-9,5	-2,755
1964,752	-0,5	-0,793
1972,887	4	-0,015
1981,029	-1,5	-1,249
1989,182	-19,5	-3,354
1997,342	-15	-3,372
2005,519	-2,5	-1,438
2013,661	4	-0,003
2021,808	-1,5	-1,171
2029,986	-19	-3,139
2038,146	-16,5	-3,377
2046,311	-3	-1,542
2054,453	4	-0,003
2062,6	-1,5	-1,062
2070,736	-19,5	-3,195
2078,907	-15,5	-3,365
2087,031	-1,5	-1,203
2095,178	4	-0,004
2103,32	-1,5	-1,215
2111,491	-19,5	-3,225
2119,645	-16,5	-3,393
2127,792	-2,5	-1,498
2135,928	4	-0,004
2144,064	-1	-1,048
2152,229	-19	-3,1
2160,365	-17	-3,415
2168,488	-2	-1,246
2176,63	4	-0,01
2184,765	-2,5	-1,403
2192,931	-19,5	-3,497
2201,102	-14,5	-3,313
2209,268	-1	-1,11
2217,397	4	-0,014
2225,551	-2,5	-1,312
2233,728	-19,5	-3,359
2241,87	-15	-3,308
2250,029	-1,5	-1,038
2258,183	4	-0,009
2266,337	-2	-1,343
2274,49	-19	-3,5
2282,62	-11	-3,032
2290,791	-0,5	-0,925
2298,927	4	-0,018
2307,104	-2,5	-1,433
2315,246	-19	-3,5
2323,405	-12	-3,07
2331,571	-1	-1,033
2339,724	4	-0,016
2347,872	-2,5	-1,458
2356,001	-19	-3,499
2364,137	-9	-2,843
2372,29	0	-0,731
2380,456	4	-0,03
2388,604	-3	-1,7
2396,733	-18,5	-3,499
2404,875	-7,5	-2,657
2413,022	2	-0,477
2421,194	4	-0,041
2429,329	-5,5	-2,048
2437,477	-19	-3,496
2445,594	-5	-2,248
2453,73	4	0
2461,859	0	-0,652
2469,977	-14	-2,982
2478,094	-14,5	-3,368
2486,248	-2	-1,302
2494,378	4	-0,008
2502,507	-2	-1,442
2510,643	-17,5	-3,499
2518,79	-7	-2,73
2526,932	4	-0,253
2535,061	1,5	-0,239
2543,209	-9	-2,457
2551,338	-16,5	-3,467
2559,498	-3	-1,82
2567,633	4	-0,004
2575,787	-0,5	-1,059
2583,94	-17	-3,348
2592,094	-11,5	-3,244
2600,247	-1	-1,068
2608,371	4	-0,02
2616,5	-3	-1,685
2624,624	-17	-3,498
2632,754	-6	-2,541
2640,889	4	-0,233
2649,055	2,5	-0,136
2657,202	-7,5	-2,318
2665,356	-16,5	-3,495
2673,485	-4,5	-2,19
2681,645	4	0
2689,768	0,5	-0,448
2697,934	-10,5	-2,667
2706,093	-16	-3,481
2714,241	-3	-1,728
2722,383	4	-0,002
2730,506	0	-1,103
2738,672	-16	-3,261
2746,825	-12,5	-3,348
2754,955	-0,5	-1,05
2763,096	4	-0,019
2771,226	-1	-1,522
2779,361	-14	-3,499
2787,491	-5,5	-2,667
2795,644	3	-0,48
2803,774	3	-0,115
2811,927	-3	-2,197
2820,087	-12,5	-3,494
2828,216	-3,5	-2,197
2836,406	4	-0,005
2844,541	1,5	-0,398
2852,683	-6	-2,671
2860,813	-11,5	-3,457
2868,96	-1,5	-1,573
2877,102	4	-0,004
2885,255	0,5	-0,894
2893,415	-10	-3,079
2901,538	-8,5	-3,324
2909,668	-1	-1,162
2917,827	4	-0,008
2925,969	0	-1,212
2934,104	-11,5	-3,4
2942,246	-8,5	-3,295
2950,393	-1	-1,183
2958,523	4	-0,013
2966,652	-0,5	-1,647
2974,782	-11,5	-3,498
2982,948	-4,5	-2,708
2991,095	2,5	-0,592
2999,237	3	-0,066
3007,366	-3	-2,288
3015,508	-11	-3,493
3023,661	-2,5	-2,301
3031,803	4	-0,187
3039,932	2	-0,208
3048,056	-5	-2,586
3056,209	-10,5	-3,478
3064,351	-1,5	-1,759
3072,486	4	-0,002
3080,634	0,5	-0,806
3088,77	-8,5	-2,978
3096,905	-9	-3,432
3105,047	-1	-1,587
3113,17	4	-0,002
3121,318	1	-0,778
3129,453	-8	-2,933
3137,985	-9	-3,056
3146,138	-9	-3,433
3154,28	-1	-1,63
3162,415	4	-0,002
3170,545	0,5	-0,951
3178,668	-10	-3,31
3186,816	-7,5	-3,367
3194,957	-0,5	-1,245
3203,099	4	-0,008
3211,223	0	-1,309
3219,352	-10	-3,5
3220,408	4	-0,001

File: _2.txt
Time (s)	Load (N)	Displacement (mm)
41,478	-22,5	-3,227
50,754	-17,5	-2,23
59,573	-5	-0,933
68,387	2,5	-0,049
77,621	-8	-1,667
206,379	-3	-1,02
214,857	1,5	-0,495
223,67	-6,5	-1,667
232,225	-5,5	-1,445
240,673	-1	-0,833
249,522	-7,5	-1,837
257,958	-3,5	-1,06
266,357	4	-0,002
274,805	4	-0,004
322,034	4	-0,024
330,362	-3	-0,972
339,067	-0,5	-0,558
347,425	-9	-1,688
355,824	-20	-2,765
364,146	-24,5	-3,498
372,869	-24,5	-3,498
381,113	-22,5	-3,415
389,374	-5,5	-1,705
435,95	0,5	-0,305
444,187	-12	-2,108
452,335	-24	-3,494
460,596	-13	-2,669
469,152	-10	-2,422
515,397	-2,5	-0,97
523,545	-24	-3,375
531,686	-18	-3,248
540,152	-11,5	-2,552
548,299	4	-0,158
556,459	1	-0,231
564,588	-16,5	-2,636
572,688	-21,5	-3,408
580,859	-3,5	-1,302
663,631	-23,5	-3,375
671,736	-12	-2,718
679,8	4	-0,001
687,905	-0,5	-0,667
696,017	-23,5	-3,418
778,158	-22,5	-3,165
786,192	-12	-2,812
794,297	4	-0,148
802,361	-0,5	-0,678
810,388	-23	-3,499
818,434	-9	-2,39
826,533	4	-0,001
834,561	-4,5	-1,358
842,552	-22,5	-3,49
960,806	-8	-2,274
968,773	4	-0,008
976,795	-10	-2,123
984,775	-19,5	-3,392
992,754	3,5	-0,402
1000,733	-2	-0,949
1008,713	-22,5	-3,496
1016,735	-4	-1,469
1024,696	2	-0,11
1032,657	-22	-3,45
1040,613	-6,5	-2,12
1048,575	4	-0,008
1056,536	-14,5	-2,522
1064,522	-15	-3,088
1072,495	4	-0,097
1080,451	-3,5	-1,328
1088,4	-22	-3,49
1096,38	-3,5	-1,378
1104,365	3	-0,072
1112,309	-18	-2,878
1120,288	-12,5	-2,893
1128,25	4,5	-0,002
1136,236	-6	-1,769
1327,103	-10,5	-2,817
1335,1	4	0
1343,032	-4,5	-1,544
1350,993	-21	-3,477
1358,961	0	-0,762
1366,91	-0,5	-0,718
1374,914	-21,5	-3,499
1382,882	-4	-1,65
1390,819	3	-0,082
1398,763	-21	-3,412
1406,688	-5,5	-1,985
1414,662	4	-0,019
1422,612	-14,5	-2,689
1430,573	-11	-2,863
1438,894	-3	-1,442
1446,826	1,5	-0,169
1454,769	-21	-3,479
1462,713	-6	-2,017
1470,645	4	-0,025
1478,606	-18	-2,939
1486,538	-7,5	-2,324
1494,475	4	-0,008
1502,437	-12,5	-2,481
1510,398	-14,5	-3,146
1518,744	-4	-1,707
1526,693	4	-0,043
1534,661	-16,5	-2,834
1542,61	-11,5	-2,818
1550,584	4	-0,001
1558,515	-4,5	-1,631
1566,459	-19,5	-3,452
1574,397	3	-0,446
1582,352	-1	-0,95
1590,326	-20,5	-3,498
1598,251	-3	-1,35
1606,225	3	-0,11
1614,192	-20,5	-3,309
1622,142	-6	-2,227
1630,086	4,5	-0,006
1638,017	-11,5	-2,421
1645,955	-14	-3,128
1653,892	4	-0,126
1661,83	-2	-1,185
1669,761	-20,5	-3,495
1677,705	-3	-1,299
1685,63	2	-0,182
1693,604	-20,5	-3,259
1701,541	-7,5	-2,341
1709,461	4,5	-0,006
1717,392	-7,5	-2,006
1725,336	-19,5	-3,456
1733,297	0	-0,792
1741,223	0	-0,515
1749,161	-20,5	-3,499
1757,092	-6	-2,178
1765,03	4	-0,004
1772,979	-8	-2,054
1780,911	-19	-3,437
1788,854	1	-0,708
1796,816	0	-0,548
1804,76	-20,5	-3,499
1812,715	-5,5	-2,065
1820,64	4,5	-0,01
1828,578	-10,5	-2,323
1836,516	-15	-3,318
1844,435	4	0
1852,361	-3	-1,387
1860,274	-20	-3,487
1868,176	-1,5	-1,091
1876,143	2,5	-0,088
1884,093	-19	-3,099
1892,024	-9	-2,602
1899,95	4	-0,002
1907,881	-6	-1,858
1915,813	-19,5	-3,464
1923,721	1	-0,732
1931,634	0	-0,642
1939,548	-20	-3,499
2056,415	-3	-1,524
2064,305	3	-0,09
2072,212	-19	-3,241
2080,096	-7,5	-2,434
2088,015	4	-0,003
2095,899	-7	-2,089
2103,819	-16	-3,351
2111,708	4,5	-0,029
2119,633	-2	-1,29
2127,559	-19,5	-3,49
2135,436	-1	-0,902
2143,338	0	-0,59
2151,252	-19,5	-3,499
2159,165	-4	-1,84
2167,067	4	-0,036
2174,986	-14,5	-2,844
2182,918	-10,5	-2,883
2190,826	4	-0,002
2198,733	-5	-1,848
2206,611	-16	-3,4
2214,53	4	-0,17
2222,408	-2,5	-1,46
2230,345	-18,5	-3,488
2238,247	0	-0,754
2246,172	0	-0,619
2254,062	-18,5	-3,498
2261,951	-2,5	-1,422
2269,895	3	-0,075
2277,826	-18	-3,201
2285,722	-5,5	-2,257
2293,623	4,5	-0,008
2301,513	-11	-2,55
2309,415	-8,5	-2,803
2317,31	4,5	-0,002
2325,236	-5,5	-1,87
2333,155	-16	-3,433
2341,063	4	-0,35
2348,958	-1,5	-1,264
2356,848	-18	-3,478
2364,737	1	-0,669
2372,663	0	-0,608
2380,57	-18	-3,498
2388,466	-2,5	-1,528
2396,368	2,5	-0,112
2404,281	-18	-3,494
2412,183	-4,5	-2,092
2420,084	4	-0,032
2427,98	-17,5	-3,17
2435,881	-5	-2,146
2443,783	4	-0,034
2451,702	-15	-2,958
2459,61	-6	-2,426
2467,541	4,5	-0,004
2475,455	-7,5	-2,303
2483,351	-10,5	-3,015
2491,27	4,5	-0,002
2499,196	-5	-1,963
2507,121	-14,5	-3,39
2515,041	4,5	-0,003
2522,942	-2,5	-1,498
2530,85	-15,5	-3,475
2538,739	3	-0,484
2546,641	-1	-1,178
2554,537	-15,5	-3,482
2562,456	0	-0,788
2570,364	0	-0,85
2578,253	-15	-3,496
2586,149	-0,5	-0,946
2594,074	0,5	-0,538
2601,964	-14,5	-3,497
2609,871	-1,5	-1,201
2617,761	1,5	-0,347
2625,668	-13	-3,499
2633,582	-2,5	-1,697
2641,49	3,5	-0,067
2649,379	-12	-3,264
2657,269	-3	-2,155
2665,164	4	-0,018
2673,06	-6	-2,642
2680,955	-6,5	-2,904
2688,851	4,5	-0,002
2696,74	-3	-2,182
2704,636	-9	-3,278
2712,544	4	0
2720,439	-1	-1,608
2728,353	-11	-3,461
2736,242	4,5	-0,242
2744,162	-0,5	-1,263
2752,081	-11,5	-3,487
2759,989	1	-0,672
2767,884	0	-0,913
2775,792	-11,5	-3,494
2783,724	-0,5	-1,077
2791,643	1	-0,452
2799,521	-11,5	-3,499
2807,41	-1,5	-1,525
2815,324	2,5	-0,117
2823,237	-11	-3,261
2831,127	-3	-2,345
2839,034	4,5	-0,009
2846,948	-5	-2,589
2854,861	-5	-2,983
2862,763	4,5	-0,001
2870,67	-2	-2,048
2878,566	-7,5	-3,316
2886,468	4,5	0
2894,369	-0,5	-1,637
2902,271	-10,5	-3,462
2910,184	3	-0,493
2918,068	0	-1,227
2925,975	-10,5	-3,491
2933,889	0,5	-0,897
2941,779	1	-0,74
2949,674	-10,5	-3,497
2957,606	-1	-1,382
2965,519	1,5	-0,258
2973,439	-10	-3,5
2981,334	-2	-2,092
2989,254	4	-0,015
2997,149	-5	-2,692
3005,051	-4,5	-2,97
3012,97	4,5	-0,001
3020,854	0	-1,783
3028,755	-8,5	-3,434
3036,651	4	-0,272
3044,553	0	-1,198
3052,448	-9,5	-3,484
3060,356	0,5	-0,779
3068,257	0,5	-0,777
3076,159	-9,5	-3,498
3084,06	-1	-1,57
3092,01	3,5	-0,048
3099,923	-6	-2,904
3107,819	-3	-2,589
3115,703	4	-0,007
3123,604	-3	-2,514
3131,53	-4,5	-3,103
3139,425	4,5	-0,001
3147,309	-0,5	-2,008
3155,21	-7	-3,38
3163,1	4,5	-0,071
3171,007	0	-1,428
3178,903	-8,5	-3,476
3186,798	3	-0,461
3194,694	0,5	-1,028
3202,59	-8,5	-3,496
3210,509	-0,5	-1,197
3218,423	2	-0,152
3223,078	4	0

File: _4.txt
Time (s)	Load (N)	Displacement (mm)
242,587	-22,5	-2,948
244,116	-16	-2,99
245,64	3,5	-0,001
247,17	-5	-1,25
248,694	-25,5	-3,496
250,247	-6,5	-1,701
251,76	3	-0,037
253,313	-18,5	-2,562
254,843	-19,5	-3,295
256,404	3	-0,449
257,994	-0,5	-0,518
259,538	-25,5	-3,212
261,126	-15,5	-2,841
262,685	3,5	-0,032
264,257	-3	-0,884
266,231	-7,5	-1,523
267,779	-25	-3,492
269,399	-7	-1,902
270,959	3,5	-0,009
272,525	-10	-1,838
274,097	-25	-3,49
275,705	-6	-1,699
277,21	3	-0,041
278,77	-16	-2,32
280,348	-24	-3,442
359,459	-15	-2,422
361,001	-21,5	-3,372
362,555	2	-0,519
364,073	-1,5	-0,783
365,561	-24,5	-3,498
367,079	-6	-1,895
368,609	3,5	-0,016
370,163	-13,5	-2,215
371,693	-23	-3,442
373,229	-0,5	-0,777
374,735	-0,5	-0,536
376,27	-24,5	-3,471
377,758	-8,5	-2,188
379,258	3,5	-0,009
380,782	-13,5	-2,184
382,337	-23,5	-3,452
383,884	-2	-0,909
385,429	1	-0,244
386,95	-24,5	-3,2
388,462	-12	-2,533
389,938	3,5	-0,006
391,462	-11	-2,023
392,973	-22,5	-3,44
394,486	0	-0,706
396,009	-0,5	-0,538
472,913	4	-0,001
474,431	-5	-1,364
475,943	-24	-3,493
477,419	-3	-1,153
478,913	1	-0,208
480,413	-24	-3,283
481,948	-12	-2,602
483,454	3,5	-0,003
484,954	-8	-1,796
486,466	-23	-3,474
487,984	-2	-0,978
489,496	1	-0,217
491,008	-23,5	-3,461
492,496	-9	-2,242
493,984	4	-0,011
495,496	-14	-2,384
496,972	-18,5	-3,308
498,49	3,5	-0,097
499,989	-4	-1,218
501,471	-23,5	-3,492
502,989	-3,5	-1,376
504,477	2,5	-0,104
505,989	-21	-2,946
507,495	-14,5	-2,837
508,983	4	-0,001
548,275	-23,5	-3,498
549,763	-5	-1,716
551,269	3,5	-0,028
552,768	-17	-2,714
554,25	-15	-3,008
555,756	4	-0,001
557,232	-5,5	-1,522
558,708	-23,5	-3,481
560,202	-1,5	-0,9
561,678	0	-0,574
563,166	-23,5	-3,499
564,666	-7	-2,055
566,142	4	-0,018
567,629	-15,5	-2,601
569,117	-16	-3,086
570,593	3,5	-0,001
572,093	-4	-1,34
573,581	-23	-3,492
575,075	-3,5	-1,265
576,557	1,5	-0,152
578,051	-22,5	-3,088
579,545	-12,5	-2,636
581,027	4	-0,002
582,521	-8,5	-1,87
584,008	-22,5	-3,46
585,496	-0,5	-0,801
586,972	0	-0,508
588,46	-23	-3,499
589,948	-7	-1,981
591,424	3,5	-0,022
592,918	-15	-2,486
594,406	-17,5	-3,169
595,876	3,5	0
597,352	-5,5	-1,567
598,834	-23	-3,481
600,31	-1,5	-0,871
601,786	0	-0,583
603,279	-23,5	-3,499
604,773	-7,5	-2,166
606,268	3,5	-0,011
607,749	-13,5	-2,385
609,261	-18	-3,338
610,743	3,5	-0,244
612,219	-3,5	-1,205
613,713	-23,5	-3,495
615,201	-4	-1,4
616,677	2	-0,136
618,189	-21	-3,053
619,695	-13	-2,758
621,176	3,5	-0,002
696,85	-2,5	-0,939
698,344	-23	-3,497
699,82	-4	-1,532
701,29	2	-0,099
702,766	-22,5	-3,251
704,248	-9	-2,405
705,736	4	-0,005
707,218	-10,5	-2,125
709,083	-23	-3,376
710,589	-9	-2,376
712,071	3,5	-0,006
713,554	-13	-2,264
715,047	-18,5	-3,348
716,517	3,5	-0,258
717,993	-3	-1,159
719,469	-23	-3,494
720,951	-3	-1,267
722,421	1	-0,251
723,921	-22,5	-3,463
725,396	-7,5	-2,161
726,866	3,5	-0,015
728,348	-14,5	-2,459
729,824	-16	-3,158
731,306	3,5	0
732,776	-5,5	-1,463
808,456	-22,5	-3,494
809,944	-3	-1,29
811,408	1	-0,252
812,908	-22,5	-3,298
814,365	-7	-2,161
815,835	3,5	-0,011
817,293	-13,5	-2,457
818,787	-16	-3,244
820,251	4	-0,037
821,715	-3	-1,268
823,191	-22,5	-3,49
824,661	-2,5	-1,14
826,137	1,5	-0,211
827,595	-22,5	-3,279
829,065	-7,5	-2,288
830,54	4	-0,006
832,004	-11	-2,205
833,468	-16,5	-3,287
834,932	4	-0,111
836,396	-3,5	-1,337
837,884	-22	-3,491
839,36	-2,5	-1,236
840,836	1,5	-0,179
842,3	-22	-3,336
843,782	-8	-2,341
845,252	4	-0,006
846,704	-12,5	-2,328
848,15	-16	-3,171
849,613	4	0
851,071	-5	-1,525
852,535	-21,5	-3,477
854,005	-0,5	-0,87
855,451	-0,5	-0,663
856,915	-22,5	-3,499
858,391	-5	-1,796
859,861	3,5	-0,027
861,337	-15,5	-2,648
862,801	-13,5	-2,941
864,271	4	-0,001
865,734	-5,5	-1,604
867,204	-21,5	-3,472
868,68	-0,5	-0,851
870,15	0	-0,546
871,608	-22,5	-3,499
873,072	-5	-1,774
874,536	3,5	-0,036
876	-18,5	-2,724
877,482	-12,5	-2,85
878,946	3,5	-0,001
880,398	-7	-1,785
881,879	-21,5	-3,461
883,349	0	-0,686
884,819	-0,5	-0,707
886,283	-22	-3,498
887,741	-4	-1,623
889,217	3,5	-0,052
890,681	-20	-2,988
892,139	-10	-2,551
893,615	4	-0,004
895,073	-10	-2,155
896,543	-18,5	-3,378
898,013	3,5	-0,269
899,477	-3	-1,236
900,952	-22	-3,492
902,416	-2,5	-1,185
903,874	0,5	-0,373
905,338	-22	-3,499
906,808	-6,5	-2,06
908,284	4	-0,018
909,748	-15	-2,647
911,2	-12,5	-2,867
912,652	4	-0,002
914,146	-6	-1,72
915,604	-21	-3,461
917,062	1,5	-0,586
1174,831	0	-0,567
1176,283	-21,5	-3,499
1177,771	-4,5	-1,774
1179,228	3,5	-0,064
1180,686	-21,5	-3,166
1182,138	-8	-2,386
1183,602	4	-0,008
1185,084	-11	-2,217
1186,548	-17	-3,32
1188,012	4	-0,037
1189,464	-5	-1,55
1190,922	-20,5	-3,474
1192,374	1	-0,646
1193,844	-1,5	-0,854
1195,29	-21	-3,496
1196,741	-3	-1,39
1198,205	1,5	-0,152
1199,669	-21	-3,253
1201,139	-7,5	-2,354
1202,609	4	-0,006
1204,073	-12	-2,368
1205,525	-13,5	-3,151
1206,989	4	-0,001
1208,447	-5,5	-1,66
1209,905	-20	-3,454
1211,381	2,5	-0,563
1212,833	-2	-1,073
1214,284	-21	-3,494
1215,749	-2,5	-1,261
1217,242	1,5	-0,164
1218,706	-21	-3,373
1220,176	-7	-2,278
1221,64	4	-0,01
1223,104	-13,5	-2,458
1224,58	-14,5	-3,176
1226,044	4	-0,001
1227,508	-5	-1,629
1228,972	-20,5	-3,476
1230,448	0	-0,771
1231,906	-0,5	-0,778
1233,357	-21	-3,497
1234,821	-3	-1,471
1236,285	2,5	-0,145
1237,737	-21	-3,378
1239,225	-7,5	-2,284
1240,683	4	-0,013
1242,171	-11	-2,351
1243,653	-16	-3,3
1245,117	4	-0,116
1246,581	-4	-1,418
3137,319	0	-0,843
3138,765	1	-0,749
3140,21	-9,5	-3,497
3141,65	-0,5	-1,413
3143,096	2	-0,208
3144,572	-9,5	-3,338
3146,018	-2	-2,136
3147,482	4	-0,02
3148,94	-6	-2,768
3150,392	-3,5	-2,714
3151,838	4	-0,004
3153,29	-3	-2,225
3154,73	-5,5	-3,206
3156,176	4	-0,001
3157,627	-1	-1,668
3159,073	-9	-3,458
3160,519	3	-0,438
3161,971	0	-1,123
3163,417	-9,5	-3,491
3164,863	0	-0,936
3166,315	0,5	-0,643
3167,755	-10	-3,498
3169,201	-1	-1,461
3170,647	1,5	-0,192
3172,093	-9,5	-3,499
3173,131	4	0

File: _5.txt
Time (s)	Load (N)	Displacement (mm)
0	0	-0,05
11,263	-20	-2,814
23,107	-3	-0,531
34,428	1	-0,394
46,223	-30	-3,285
57,414	-7	-1,124
68,89	-0,5	-0,658
79,929	-12,5	-2,178
90,963	-27,5	-3,457
102,326	-14,5	-1,961
113,365	0	-0,321
124,452	3	0
135,504	-8,5	-1,784
146,627	-27	-3,492
157,846	-11	-1,823
168,742	-1,5	-0,635
179,703	3	-0,028
191,12	-10,5	-2,254
201,998	-17	-2,986
252,678	3,5	-0,002
263,458	3	-0,146
274,348	-4	-1,135
285,465	-18,5	-3,182
296,11	-16,5	-2,928
307,01	-25	-3,481
317,629	-24	-3,448
328,309	-24,5	-3,466
338,928	-22,5	-3,392
349,553	-20	-3,308
360,131	-15	-2,838
370,655	-6,5	-1,852
381,076	0	-0,644
391,503	3,5	-0,002
440,49	3,5	-0,004
450,996	1,5	-0,105
461,399	-3,5	-1,195
471,833	-15	-2,408
482,266	-24	-3,499
492,633	-22,5	-3,445
503,067	-9,5	-2,298
513,509	-2,5	-0,998
523,855	3,5	-0,004
534,223	-1	-0,711
544,512	-18	-2,702
554,778	-22,5	-3,461
565,068	-5,5	-1,737
575,429	3,5	-0,003
623,276	-19,5	-3,346
633,565	-4	-1,393
643,843	3,5	-0,006
654,102	-3,5	-1,228
664,332	-23	-3,5
674,903	-23	-3,495
685,168	-11	-2,591
695,386	3	-0,306
705,627	0,5	-0,284
715,881	-13,5	-2,363
726,116	-23	-3,491
773,225	-22,5	-3,496
783,437	-8,5	-2,385
793,624	3,5	0
803,751	-1,5	-0,868
813,933	-21	-3,015
824,132	-20	-3,428
834,302	-3	-1,375
844,435	3,5	-0,016
854,569	-12,5	-2,298
864,738	-21,5	-3,464
875,273	-15	-3,089
885,431	3,5	-0,208
895,564	-2,5	-1,088
905,692	-22,5	-3,497
915,855	-5	-1,829
926,018	3,5	-0,009
936,17	-8	-1,986
946,315	-22	-3,482
956,473	-4	-1,538
966,588	3	-0,08
976,746	-21	-3,176
986,867	-12	-2,78
996,982	3,5	-0,126
1007,134	0	-0,52
1017,255	-22	-3,365
1027,395	-14,5	-3,058
1037,51	3,5	-0,278
1047,644	0,5	-0,371
1057,759	-20,5	-3,087
1067,85	-11,5	-2,772
1077,966	3,5	0
1088,063	-3,5	-1,395
1098,149	-21,5	-3,493
1108,276	-4	-1,598
1118,439	3,5	-0,014
1128,519	-10,5	-2,322
1138,652	-21	-3,474
1148,756	-2	-1,031
1158,871	2	-0,136
1168,957	-16,5	-2,818
1179,102	-19	-3,428
1189,602	-13	-3,012
1199,717	1,5	-0,56
1209,826	0,5	-0,263
1219,942	-15,5	-2,716
1230,027	-15	-3,26
1240,124	2	-0,58
1250,192	0	-0,599
1260,32	-21	-3,196
1270,423	-12,5	-2,991
1280,502	4	-0,201
1290,6	-0,5	-0,759
1300,691	-21	-3,384
1310,802	-12	-2,935
1320,88	3,5	0
1330,971	-1,5	-1,022
1341,357	-9	-2,145
1351,466	-20,5	-3,474
1361,552	-1	-0,946
1371,661	2,5	-0,135
1381,728	-16,5	-2,874
1391,808	-13	-3,082
1401,899	3,5	-0,253
1412,003	0	-0,638
1422,106	-21	-3,305
1432,198	-11	-2,804
1442,277	4	-0,001
1452,374	-1,5	-1,079
1462,46	-20,5	-3,498
1472,557	-6	-2,163
1482,643	4	-0,003
1492,74	-5,5	-1,808
1502,814	-20	-3,484
1512,935	-2,5	-1,293
1523,038	3	-0,083
1533,136	-15,5	-2,843
1543,221	-13	-3,027
1553,283	3,5	-0,102
1563,35	-1,5	-1,112
1573,447	-20,5	-3,498
1583,557	-4,5	-1,889
1593,702	3,5	-0,008
1603,776	-9	-2,247
1613,903	-18,5	-3,462
1623,983	0	-0,728
1634,044	0	-0,661
1644,141	-20,5	-3,499
1654,251	-8	-2,494
1664,288	4	-0,002
1674,392	-4	-1,528
1684,465	-20	-3,49
1694,539	-2	-1,28
1704,576	1	-0,198
1714,661	-20	-3,333
1724,741	-7,5	-2,43
1734,808	3,5	-0,005
1744,894	-7,5	-2,015
1754,967	-19	-3,455
1765,083	-1,5	-1,099
1775,18	2,5	-0,119
1785,253	-19,5	-3,201
1795,339	-9	-2,703
1805,406	4	-0,001
1815,462	-5,5	-1,823
1825,517	-19	-3,457
1835,572	-1	-0,869
1845,64	0,5	-0,325
1855,719	-19,5	-3,216
1865,769	-7,5	-2,54
1875,8	4	-0,003
1885,844	-8	-2,134
1895,869	-14,5	-3,253
1905,936	4	-0,006
1915,968	-3	-1,566
1926,023	-19,5	-3,476
1936,091	-1	-0,972
1946,146	0,5	-0,5
1956,166	-20	-3,499
1966,209	-3,5	-1,696
1976,27	3,5	-0,043
1986,296	-17,5	-3
1996,309	-6,5	-2,308
2006,347	4	-0,012
2016,39	-9,5	-2,343
2026,434	-15	-3,325
2036,483	4	-0,036
2046,532	-3	-1,461
2056,546	-18,5	-3,458
2066,577	2	-0,447
2076,603	-1,5	-1,168
2086,634	-19,5	-3,488
2096,642	0	-0,7
2106,679	0	-0,613
2116,68	-19,5	-3,497
2126,736	-2,5	-1,32
2136,773	2	-0,17
2146,841	-19	-3,202
2156,884	-6	-2,39
2166,898	4	-0,012
2176,947	-12,5	-2,548
2186,979	-10	-2,871
2197,01	4	-0,002
2207,047	-7,5	-2,068
2217,085	-13,5	-3,275
2227,128	2,5	-0,462
2237,19	0	-0,655
2247,245	-19,5	-3,499
2257,288	-3,5	-1,774
2267,32	3,5	-0,055
2277,363	-16,5	-3,024
2287,401	-8,5	-2,738
2297,414	4	-0,002
2307,446	-5	-1,857
2317,459	-17	-3,432
2327,526	0	-0,7
2337,558	-0,5	-0,776
2347,571	-19	-3,498
2357,573	-2	-1,372
2367,586	0,5	-0,343
2377,642	-19,5	-3,5
2387,703	-5	-2,086
2397,704	3,5	-0,032
2407,784	-13,5	-2,676
2417,815	-10,5	-2,913
2427,871	4	-0,002
2437,89	-6,5	-2,09
2447,91	-13,5	-3,296
2457,947	4	-0,001
2467,96	-4	-1,736
2477,974	-17	-3,44
2488,023	0	-0,758
2498,043	0,5	-0,404
2508,062	-18	-3,499
2518,081	-3,5	-1,894
2528,101	3,5	-0,03
2538,102	-15,5	-2,983
2548,17	-9,5	-2,878
2558,177	4	-0,001
2568,227	-3	-1,669
2578,264	-17,5	-3,476
2588,278	0	-0,753
2598,333	0,5	-0,475
2608,346	-17,5	-3,499
2618,36	-4	-1,988
2628,391	3,5	-0,03
2638,441	-11,5	-2,731
2648,478	-9	-2,989
2658,48	4	-0,001
2668,505	-3,5	-1,81
2678,518	-15	-3,432
2688,55	3	-0,493
2698,581	0	-0,886
2708,613	-16,5	-3,497
2718,686	-2,5	-1,69
2728,705	3	-0,075
2738,725	-15,5	-3,366
2748,726	-3,5	-2,114
2758,74	4	-0,014
2768,753	-7,5	-2,467
2778,797	-11,5	-3,289
2788,828	4	-0,159
2798,86	-1	-1,259
2808,903	-15,5	-3,496
2818,922	-1,5	-1,324
2828,954	2,5	-0,122
2838,961	-14	-3,027
2849,023	-9	-3,071
2859,06	4	0
2869,109	-0,5	-1,168
2879,117	-15	-3,495
2889,148	-2	-1,524
2899,162	3	-0,049
2909,157	-10,5	-2,908
2919,177	-5,5	-2,722
2929,19	4	-0,002
2939,239	-2	-1,832
2949,271	-12	-3,464
2959,278	1,5	-0,6
2969,304	0,5	-0,628
2979,311	-12,5	-3,498
2989,319	-2	-1,758
2999,326	3,5	-0,04
3009,369	-9	-2,925
3019,431	-4,5	-2,723
3029,438	4	-0,004
3039,44	-5,5	-2,618
3049,465	-5	-2,846
3059,473	4	-0,002
3069,492	-1,5	-1,782
3079,517	-10,5	-3,44
3089,537	3,5	-0,295
3099,556	-0,5	-1,61
3109,57	-10,5	-3,46
3119,613	1	-0,556
3129,669	0	-0,879
3139,694	-11	-3,494
3149,701	-0,5	-1,119
3159,721	0,5	-0,63
3169,782	-10,5	-3,499
3179,838	-1,5	-1,774
3189,845	1,5	-0,188
3199,864	-10,5	-3,5
3205,18	3,5	-0,001