Folder: Data-filter--cyclical-tests-BEPE-project-/Cycling_tests/sem_TC/entrada

Note: README.md
# Data filter (cyclical tests BEPE project)
python aplication to treat data get by fatigue testing machine

File: _2.txt
Time (s)	Load (N)	Displacement (mm)
0	0	-0,035
10,781	2	-0,018
21,502	2,5	-0,001
32,23	3	-0,005
42,945	2,5	-0,013
53,685	3	-0,013
64,43	2,5	-0,02
75,145	2	-0,04
85,861	0	-0,138
96,589	-0,5	-0,285
107,327	-2,5	-0,47
118,055	-2	-0,421
128,776	0	-0,184
139,498	0	-0,122
150,231	1,5	-0,085
160,958	1,5	-0,07
171,716	3	-0,028
182,461	3,5	-0,01
193,201	3,5	-0,007
203,946	3,5	-0,005
214,691	3,5	-0,005
225,449	3,5	-0,005
236,212	3,5	-0,002
246,958	3,5	-0,002
257,721	3,5	-0,002
268,478	3,5	-0,001
279,248	3,5	-0,001
289,999	3,5	-0,005
300,792	3,5	-0,007
311,55	3,5	-0,006
322,325	3,5	-0,002
333,089	3,5	-0,001
343,84	3	-0,321
354,597	-1,5	-0,789
365,373	-5,5	-1,266
376,136	-7,5	-1,623
386,923	-11	-2,067
397,681	-14	-2,332
408,438	-15,5	-2,502
419,202	-15	-2,46
429,983	-16	-2,69
440,758	-19,5	-2,937
451,529	-22,5	-3,085
462,285	-26	-3,349
473,055	-27	-3,43
483,794	-29	-3,472
494,551	-29,5	-3,486
505,315	-29,5	-3,491
516,096	-29,5	-3,498
526,859	-29,5	-3,499
537,641	-29,5	-3,499
548,41	-29,5	-3,5
559,156	-29,5	-3,432
569,937	-25,5	-2,96
580,7	-22	-2,596
591,47	-18,5	-2,262
602,227	-15,5	-2,061
612,997	-11	-1,716
623,766	-8	-1,42
634,517	-6	-1,234
645,263	-6	-1,189
656,026	-3,5	-0,88
666,795	-2,5	-0,662
677,571	-0,5	-0,504
688,334	-0,5	-0,459
699,104	0,5	-0,185
709,867	3	-0,062
720,636	4	-0,016
731,388	4	-0,008
742,157	4	-0,004
752,939	4	-0,001
763,696	4	-0,001
774,471	4	-0,011
785,229	4	-0,214
795,992	3	-0,452
806,743	0	-0,724
817,507	-3,5	-1,108
828,264	-5	-1,405
839,016	-5,5	-1,563
849,773	-7	-1,77
860,524	-8,5	-1,918
871,27	-10,5	-2,17
882,063	-14,5	-2,54
892,827	-19,5	-3,024
903,578	-25	-3,39
914,335	-27,5	-3,484
925,093	-27,5	-3,496
935,862	-27,5	-3,499
946,613	-24	-3,01
957,365	-18	-2,239
968,128	-9	-1,626
978,874	-3,5	-1,073
989,643	-0,5	-0,536
1000,4	2,5	-0,104
1011,14	3,5	-0,041
1021,903	4	-0,017
1032,655	4	-0,005
1043,394	4	-0,002
1054,151	4	0
1064,909	4	-0,276
1075,678	2	-0,576
1086,435	-1,5	-0,887
1097,205	-4,5	-1,372
1107,968	-6,5	-1,813
1118,732	-9	-2,14
1129,477	-14	-2,677
1140,228	-17,5	-3,081
1150,986	-24	-3,396
1161,737	-26,5	-3,48
1172,489	-27	-3,496
1183,258	-27	-3,499
1194,021	-27	-3,33
1204,785	-24	-2,959
1215,548	-18	-2,458
1226,299	-15	-2,239
1237,063	-9,5	-1,77
1247,832	-7,5	-1,526
1258,578	-6	-1,435
1269,341	-4,5	-1,193
1280,098	-3	-0,983
1290,868	-1	-0,579
1301,619	0	-0,42
1312,377	2,5	-0,103
1323,122	3	-0,076
1333,879	3,5	-0,034
1344,625	4	-0,012
1355,382	4	-0,004
1366,133	4	-0,003
1376,891	4	-0,001
1387,648	4	0
1398,406	4	0
1409,157	4	-0,231
1419,926	0	-0,676
1430,696	-2,5	-0,993
1441,465	-3,5	-1,264
1452,241	-5,5	-1,677
1462,992	-7,5	-1,953
1473,755	-10,5	-2,322
1484,519	-13,5	-2,54
1495,282	-14,5	-2,665
1506,028	-15,5	-2,937
1516,785	-19,5	-3,122
1527,554	-18,5	-3,215
1538,318	-22	-3,342
1549,063	-23,5	-3,409
1559,838	-25	-3,478
1570,584	-25,5	-3,49
1581,335	-25,5	-3,494
1592,099	-25,5	-3,496
1602,844	-25,5	-3,497
1613,595	-25,5	-3,498
1624,347	-25,5	-3,499
1635,098	-25,5	-3,499
1645,838	-25	-3,5
1656,601	-25	-3,44
1667,346	-25	-3,326
1678,098	-25	-3,294
1688,849	-24	-3,126
1699,6	-24	-3,04
1710,364	-18,5	-2,746
1721,115	-17	-2,586
1731,873	-15	-2,419
1742,618	-14	-2,315
1753,363	-12,5	-2,275
1764,121	-11	-2,07
1774,866	-10	-2,075
1785,606	-8,5	-1,885
1796,351	-6,5	-1,686
1807,102	-5	-1,538
1817,848	-4,5	-1,428
1828,605	-3,5	-1,293
1839,356	-3	-1,276
1850,108	-3	-1,238
1860,865	-1,5	-0,923
1871,611	-1	-0,74
1882,368	0	-0,481
1893,119	0,5	-0,449
1903,865	1	-0,284
1914,622	2,5	-0,137
1925,38	4	-0,064
1936,143	4,5	-0,021
1946,888	4,5	-0,019
1957,64	4,5	-0,014
1968,403	4,5	-0,006
1979,154	4,5	-0,004
1989,906	4,5	-0,002
2000,657	4,5	-0,001
2011,409	4,5	0
2022,16	4,5	-0,03
2032,917	4,5	-0,13
2043,657	4,5	0
2054,414	4,5	-0,018
2065,16	4,5	-0,001
2075,923	4,5	-0,001
2086,662	4,5	-0,002
2097,414	4,5	-0,002
2108,171	4,5	-0,001
2118,928	4,5	-0,001
2129,68	4,5	-0,001
2140,437	4,5	-0,002
2151,189	4,5	-0,002
2161,946	4,5	-0,001
2172,703	4,5	-0,001
2183,437	4,5	0
2194,182	4,5	-0,004
2204,94	4,5	-0,07
2215,685	4,5	-0,274
2226,436	3,5	-0,405
2237,2	2	-0,572
2247,951	4	-0,32
2258,696	4,5	0
2269,436	4,5	0
2280,181	4,5	0
2290,927	4,5	-0,036
2301,672	4,5	-0,162
2312,417	4,5	-0,286
2323,175	3,5	-0,418
2333,932	3	-0,459
2344,69	1	-0,611
2355,429	2,5	-0,482
2366,18	2	-0,588
2376,95	2	-0,508
2387,707	3,5	-0,368
2398,465	3,5	-0,323
2409,222	4	-0,217
2419,973	4	-0,278
2430,731	4	-0,076
2441,482	4	0
2452,239	4	0
2462,991	4	-0,001
2473,748	4	-0,001
2484,506	4	-0,001
2495,257	4	-0,001
2506,02	4	-0,002
2516,772	4	-0,002
2527,535	4	-0,002
2538,299	4,5	-0,001
2549,056	4	0
2559,801	4,5	-0,001
2570,553	4,5	-0,001
2581,298	4,5	-0,001
2592,055	4,5	-0,001
2602,813	4	-0,001
2613,564	4,5	-0,002
2624,322	4	-0,004
2635,061	4	-0,006
2645,812	4,5	-0,004
2656,624	4,5	-0,001
2667,357	4,5	-0,003
2678,127	4,5	-0,006
2688,866	4,5	-0,011
2699,629	4	-0,008
2710,375	4	-0,022
2721,138	4	-0,024
2731,895	3	-0,08
2742,647	1,5	-0,222
2753,404	1,5	-0,575
2764,168	1,5	-0,712
2774,913	0,5	-0,998
2785,664	1	-0,998
2796,422	0,5	-1,196
2807,161	0	-1,492
2817,919	0	-1,752
2828,682	-0,5	-1,803
2839,427	-1	-2,009
2850,185	-1	-2,102
2860,936	-2	-2,373
2871,705	-3	-2,5
2882,469	-3,5	-2,69
2893,22	-6	-2,936
2903,972	-10,5	-3,366
2914,723	-10,5	-3,498
2925,474	-10,5	-3,497
2936,214	-10,5	-3,487
2946,995	-10,5	-3,476
2957,759	-10	-3,466
2968,504	-9,5	-3,444
2979,255	-6	-3,283
2990,019	-6,5	-3,308
3000,77	-5	-3,078
3011,515	-3	-2,73
3022,267	-2	-2,549
3033,024	-2	-2,53
3043,776	-2	-2,43
3054,521	-1,5	-2,298
3065,278	-1	-1,956
3076,036	-1	-1,854
3086,787	-0,5	-1,599
3097,545	-0,5	-1,32
3108,29	-0,5	-1,221
3119,036	-0,5	-1,132
3129,781	-0,5	-1,198
3140,538	-0,5	-1,052
3151,283	0,5	-0,772
3162,029	0,5	-0,822
3172,786	0,5	-0,746
3183,532	1	-0,658
3194,289	2	-0,501
3205,04	3,5	-0,39
3215,804	3,5	-0,337
3220,004	4	-0,001

File: _3.txt
Time (s)	Load (N)	Displacement (mm)
0	0	-0,022
10,479	1,5	-0,003
20,918	1,5	-0,018
31,358	-2,5	-0,305
41,803	-11,5	-1,213
52,452	-9,5	-1,011
63,114	-5	-0,59
73,601	-9	-1,106
84,083	-10,5	-1,211
94,636	-10	-1,244
105,687	2,5	-0,002
116,373	2	-0,314
127,256	-9,5	-1,566
137,84	-8,5	-1,486
149,077	-32,5	-3,5
159,876	-24	-2,641
170,784	-6	-0,904
181,517	-0,5	-0,273
191,992	-4	-0,736
202,462	-7,5	-1,078
212,931	-9,5	-1,366
223,383	-16,5	-1,738
233,852	-16,5	-1,878
244,321	-20,5	-2,3
254,785	-21	-2,41
265,326	-19	-2,248
275,808	-23,5	-2,662
286,325	-22	-2,546
296,8	-26	-2,79
307,264	-26	-2,884
317,733	-25	-2,746
328,179	-28	-2,928
338,654	-28	-2,961
349,129	-28	-3,006
359,587	-30,5	-3,235
370,056	-30,5	-3,365
380,526	-30	-3,495
391,019	-30	-3,495
401,512	-30	-3,5
411,982	-30	-3,5
422,463	-30	-3,499
432,939	-29,5	-3,499
443,42	-29,5	-3,499
453,883	-29,5	-3,496
464,353	-29,5	-3,494
474,846	-29,5	-3,187
485,34	-28,5	-3,137
495,821	-26	-2,96
506,302	-29	-3,061
516,79	-25	-2,96
527,283	-23	-2,694
537,777	-22,5	-2,66
548,258	-21,5	-2,547
558,751	-20	-2,423
569,245	-16,5	-2,193
579,726	-14	-1,98
590,22	-11	-1,642
600,719	-9	-1,456
611,218	-6,5	-1,196
621,694	-5	-1,056
632,193	-3	-0,747
642,687	-1,5	-0,538
653,168	0	-0,274
663,643	0	-0,237
674,125	1,5	-0,127
684,618	3	-0,039
695,112	3	-0,026
705,593	3,5	-0,02
716,122	3,5	-0,007
726,634	3,5	-0,003
737,133	3,5	-0,001
747,627	3,5	-0,09
758,114	3,5	-0,157
768,625	3,5	-0,255
779,131	3,5	-0,181
789,642	3,5	-0,244
800,124	3,5	-0,086
810,599	3,5	-0,25
821,098	3,5	-0,263
831,61	3,5	-0,232
842,115	3	-0,35
852,609	3	-0,281
863,114	2	-0,451
873,613	2	-0,461
884,131	0	-0,615
894,63	1,5	-0,519
905,112	3,5	-0,196
915,611	3,5	-0,224
926,092	3,5	0
936,58	3,5	-0,001
947,073	3,5	-0,001
957,573	3,5	-0,001
968,072	3,5	-0,001
978,559	3,5	-0,001
989,041	3,5	-0,001
999,534	3,5	0
1010,04	3,5	-0,138
1020,539	3,5	-0,012
1031,038	3,5	-0,001
1041,514	3,5	-0,001
1052,001	3,5	-0,001
1062,477	3,5	-0,002
1072,976	3,5	-0,002
1083,481	3,5	-0,001
1093,969	3,5	-0,002
1104,468	3,5	-0,001
1114,968	4	-0,001
1125,437	3,5	-0,001
1135,936	3,5	-0,002
1146,412	3,5	-0,002
1156,899	3,5	-0,001
1167,393	3,5	0
1177,88	3,5	-0,108
1188,379	3	-0,3
1198,879	3,5	-0,19
1209,36	3,5	-0,202
1219,842	3,5	-0,018
1230,341	3,5	-0,115
1240,828	3,5	-0,177
1251,328	3,5	-0,222
1261,821	3,5	-0,289
1272,303	3,5	-0,29
1282,808	3	-0,384
1293,295	0,5	-0,645
1303,783	-1,5	-0,866
1314,27	-2,5	-1,024
1324,764	-3	-1,207
1335,245	-4	-1,318
1345,738	-4,5	-1,457
1356,226	-4,5	-1,532
1366,701	-4,5	-1,502
1377,195	-5	-1,526
1387,688	-3	-1,315
1398,193	-4	-1,334
1408,681	-4,5	-1,535
1419,174	-5,5	-1,695
1429,662	-6,5	-1,853
1440,161	-8	-2,056
1450,648	-8	-2,096
1461,13	-9,5	-2,166
1471,611	-9	-2,097
1482,105	-9	-2,205
1492,586	-9	-2,237
1503,079	-10	-2,293
1513,567	-10	-2,27
1524,06	-9	-2,23
1534,548	-9	-2,157
1545,041	-10,5	-2,395
1555,534	-9,5	-2,27
1566,028	-9	-2,181
1576,515	-7,5	-2,067
1587,015	-9	-2,21
1597,502	-8,5	-2,118
1607,995	-8	-2,105
1618,489	-11	-2,426
1628,976	-12,5	-2,606
1639,47	-14	-2,708
1649,945	-15	-2,827
1660,438	-14,5	-2,76
1670,926	-15	-2,881
1681,413	-17	-3,076
1691,889	-17	-3,031
1702,37	-18	-3,126
1712,869	-21,5	-3,38
1723,369	-19,5	-3,417
1733,856	-24	-3,465
1744,356	-24,5	-3,484
1754,861	-24,5	-3,488
1765,336	-24	-3,484
1775,824	-24,5	-3,492
1786,305	-24	-3,493
1796,781	-24	-3,488
1807,262	-24	-3,488
1817,743	-24	-3,492
1828,231	-24	-3,493
1838,724	-23	-3,492
1849,206	-23	-3,49
1859,687	-22,5	-3,486
1870,162	-22	-3,471
1880,644	-21	-3,442
1891,149	-20,5	-3,443
1901,619	-16,5	-3,345
1912,106	-15	-3,2
1922,587	-12	-2,918
1933,081	-10	-2,714
1943,562	-9	-2,576
1954,032	-5,5	-2,192
1964,519	-4,5	-1,936
1975,019	-4,5	-1,786
1985,506	-3,5	-1,708
1996,011	-3,5	-1,718
2006,493	-2,5	-1,458
2016,98	-2	-1,232
2027,467	-1	-1,088
2037,955	-0,5	-0,874
2048,442	2,5	-0,487
2058,924	4	-0,232
2069,411	4	-0,142
2079,892	4	-0,001
2090,38	4	-0,004
2100,861	4	-0,014
2111,355	4	-0,018
2121,836	4	-0,039
2132,317	3,5	-0,065
2142,805	3	-0,132
2153,286	2	-0,245
2163,78	1,5	-0,453
2174,261	1	-0,675
2184,748	0,5	-0,794
2195,23	0,5	-0,92
2205,711	0	-1,219
2216,199	-0,5	-1,396
2226,674	-1	-1,616
2237,156	-2	-1,76
2247,643	-1	-1,703
2258,124	-1	-1,665
2268,6	-1	-1,62
2279,069	-1	-1,69
2289,545	-1,5	-1,859
2300,02	-2	-2,026
2310,495	-3,5	-2,38
2320,983	-3,5	-2,376
2331,464	-3	-2,269
2341,94	-3	-2,241
2352,427	-3,5	-2,147
2362,902	-1,5	-2,017
2373,372	-2	-2,14
2383,841	-2,5	-2,2
2394,317	-1,5	-2,097
2404,798	-2	-2,124
2415,267	-2,5	-2,205
2425,743	-3	-2,303
2436,218	-3	-2,344
2446,688	-3,5	-2,514
2457,169	-3,5	-2,515
2467,65	-5,5	-2,753
2478,132	-6	-2,844
2488,601	-10,5	-3,1
2499,071	-11,5	-3,28
2509,552	-10,5	-3,15
2520,027	-8,5	-3,024
2530,514	-7,5	-2,93
2541,002	-5,5	-2,83
2551,484	-7,5	-2,979
2561,977	-9	-3,041
2572,464	-10,5	-3,139
2582,952	-10	-3,119
2593,427	-10,5	-3,197
2603,915	-11	-3,215
2614,402	-9,5	-3,119
2624,883	-9	-3,098
2635,377	-6,5	-2,957
2645,858	-8	-3,047
2656,346	-8,5	-3,017
2666,839	-4,5	-2,766
2677,326	-3	-2,432
2687,82	-3	-2,461
2698,301	-3,5	-2,574
2708,795	-3	-2,465
2719,282	-4	-2,62
2729,769	-4,5	-2,718
2740,275	-4,5	-2,645
2750,768	-7,5	-2,861
2761,25	-8,5	-3,021
2771,725	-10,5	-3,272
2782,212	-11	-3,492
2792,7	-11	-3,497
2803,205	-10,5	-3,5
2813,699	-11	-3,5
2824,186	-11	-3,499
2834,679	-11	-3,498
2845,173	-11	-3,498
2855,648	-11	-3,496
2866,118	-10,5	-3,49
2876,599	-10,5	-3,462
2887,092	-8	-3,401
2897,58	-7,5	-3,328
2908,049	-5	-3,11
2918,543	-5	-3,085
2929,03	-4	-2,929
2939,505	-4	-2,873
2949,975	-3,5	-2,776
2960,462	-3	-2,62
2970,95	-2,5	-2,548
2981,431	-2,5	-2,433
2991,912	-2	-2,231
3002,4	-2	-2,134
3012,899	-1,5	-2,038
3023,375	-1	-1,69
3033,862	-1	-1,529
3044,349	-1	-1,463
3054,843	-0,5	-1,422
3065,318	-1	-1,33
3075,806	-1	-1,263
3086,287	-0,5	-1,248
3096,774	-0,5	-1,076
3107,268	-0,5	-0,908
3117,749	1	-0,595
3128,243	0	-0,734
3138,73	0,5	-0,731
3149,049	4	0

File: _8.txt
Time (s)	Load (N)	Displacement (mm)
0	0	-0,035
10,847	1,5	-0,196
21,616	2	-0,217
32,386	2	-0,221
43,149	1,5	-0,331
53,924	1,5	-0,426
64,682	-1	-0,676
75,439	-4	-0,933
86,214	-4,5	-0,957
96,996	-6	-1,214
107,777	-9	-1,517
118,559	-10	-1,71
129,334	-13	-1,995
140,127	-16	-2,274
150,909	-18	-2,451
161,704	-21	-2,702
172,502	-23,5	-2,974
183,301	-26	-3,213
194,094	-27	-3,414
204,906	-32	-3,485
215,741	-32	-3,498
226,516	-32	-3,499
237,328	-32	-3,228
248,133	-28	-2,935
258,938	-21,5	-2,515
269,732	-16	-1,934
280,549	-8,5	-1,29
291,343	-3	-0,58
302,124	1	-0,127
312,947	3,5	-0,014
323,759	3,5	-0,002
334,558	3,5	-0,001
345,376	3,5	-0,3
356,175	1	-0,541
366,986	-3	-0,873
377,81	-7	-1,5
388,609	-8,5	-1,702
399,414	-13	-2,233
410,25	-18	-2,657
421,067	-22,5	-3,116
431,879	-27,5	-3,417
442,678	-29	-3,458
453,495	-30	-3,487
464,307	-30	-3,496
475,118	-30	-3,498
485,936	-30	-3,499
496,733	-30	-3,456
507,534	-25,5	-2,917
518,346	-21	-2,584
529,145	-19,5	-2,418
539,968	-19,5	-2,399
550,786	-16	-2,133
561,609	-15	-1,985
572,403	-11	-1,69
583,202	-11	-1,705
593,995	-8	-1,448
604,819	-5	-1,05
615,618	-2	-0,661
626,423	-1	-0,45
637,235	1	-0,169
648,046	2,5	-0,06
658,864	3,5	-0,021
669,687	3,5	-0,008
680,493	3,5	-0,004
691,298	3,5	-0,004
702,115	3,5	-0,001
712,927	3,5	-0,035
723,714	3,5	-0,141
734,513	3,5	-0,254
745,307	3	-0,368
756,112	2	-0,428
766,917	0	-0,634
777,729	0	-0,566
788,534	0	-0,576
799,334	-1	-0,806
810,145	-3	-1,037
820,95	-4	-1,232
831,75	-3,5	-1,116
842,549	-3,5	-1,172
853,343	-4	-1,147
864,154	-4	-1,282
874,959	-4,5	-1,286
885,771	-4,5	-1,379
896,582	-6	-1,626
907,405	-7	-1,772
918,217	-7,5	-1,823
929,028	-6,5	-1,761
939,84	-6	-1,663
950,645	-8	-1,932
961,456	-10,5	-2,217
972,274	-11,5	-2,332
983,079	-13,5	-2,497
993,878	-14,5	-2,605
1004,678	-15	-2,696
1015,465	-18	-2,902
1026,271	-20,5	-3,162
1037,07	-24	-3,388
1047,863	-27	-3,473
1058,657	-27	-3,485
1069,444	-27	-3,491
1080,238	-27	-3,494
1091,031	-27	-3,496
1101,83	-27	-3,499
1112,624	-27	-3,499
1123,417	-27	-3,472
1134,21	-27	-3,36
1145,004	-24,5	-3,06
1155,797	-21,5	-2,861
1166,603	-19,5	-2,633
1177,402	-15,5	-2,334
1188,201	-12,5	-2,063
1199,001	-11	-1,94
1209,812	-10	-1,825
1220,618	-9	-1,753
1231,417	-7,5	-1,6
1242,222	-6	-1,445
1253,022	-4	-1,124
1263,827	-2,5	-0,855
1274,632	-1	-0,675
1285,45	0	-0,398
1296,249	0	-0,238
1307,067	1,5	-0,133
1317,872	3	-0,053
1328,677	3,5	-0,033
1339,483	3,5	-0,028
1350,276	4	-0,017
1361,082	4	-0,014
1371,887	3,5	-0,007
1382,692	4	-0,004
1393,504	4	-0,004
1404,303	4	-0,005
1415,114	4	-0,004
1425,92	4	-0,004
1436,719	3,5	-0,004
1447,525	4	-0,003
1458,33	4	-0,002
1469,135	4	-0,002
1479,935	4	-0,002
1490,758	4	-0,001
1501,563	4	-0,001
1512,375	4	-0,001
1523,18	4	-0,001
1533,998	4	0
1544,809	4	-0,001
1555,614	4	0
1566,414	4	0
1577,213	4	-0,001
1588,013	4	-0,001
1598,818	4	-0,001
1609,623	4	-0,001
1620,429	4	-0,001
1631,24	4	-0,001
1642,045	4	0
1652,851	4	0
1663,656	4	-0,031
1674,45	4	0
1685,249	4	0
1696,048	4	-0,082
1706,842	4	-0,135
1717,647	3,5	-0,299
1728,471	2,5	-0,432
1739,27	3	-0,416
1750,063	1	-0,511
1760,863	0	-0,697
1771,674	-2	-0,997
1782,467	-1	-0,889
1793,267	-1	-0,836
1804,066	-1	-0,847
1814,866	-1	-0,87
1825,671	-1,5	-0,932
1836,464	-1	-0,855
1847,258	-0,5	-0,778
1858,069	-2,5	-1,152
1868,863	-2,5	-1,118
1879,65	-2	-1,06
1890,449	-2,5	-1,139
1901,255	-3,5	-1,378
1912,054	-4,5	-1,581
1922,865	-6	-1,923
1933,665	-6	-1,928
1944,464	-7,5	-2,136
1955,27	-7,5	-2,104
1966,075	-8,5	-2,251
1976,874	-10,5	-2,496
1987,668	-12	-2,642
1998,461	-15	-2,98
2009,267	-20	-3,332
2020,066	-22	-3,418
2030,853	-22,5	-3,459
2041,659	-23	-3,485
2052,458	-24	-3,496
2063,251	-23,5	-3,497
2074,063	-23,5	-3,498
2084,874	-23,5	-3,499
2095,662	-23	-3,489
2106,461	-23	-3,359
2117,266	-23	-3,207
2128,066	-22	-3,115
2138,871	-22,5	-3,116
2149,67	-22,5	-3,228
2160,476	-19,5	-3,03
2171,275	-20	-3,084
2182,075	-20,5	-3,104
2192,874	-21	-3,316
2203,673	-20,5	-3,361
2214,461	-19,5	-3,5
2225,266	-19,5	-3,414
2236,072	-19	-3,315
2246,859	-18,5	-3,298
2257,67	-16,5	-3,147
2268,47	-18	-3,207
2279,275	-17	-3,136
2290,08	-17	-3,29
2300,88	-17	-3,5
2311,679	-16,5	-3,499
2322,479	-16	-3,499
2333,278	-16	-3,499
2344,077	-16	-3,499
2354,871	-15,5	-3,498
2365,67	-15,5	-3,498
2376,476	-15	-3,498
2387,275	-15,5	-3,498
2398,068	-15	-3,498
2408,868	-15	-3,498
2419,667	-14,5	-3,498
2430,472	-15	-3,498
2441,278	-14,5	-3,498
2452,077	-14	-3,498
2462,883	-13,5	-3,499
2473,67	-13	-3,498
2484,469	-12,5	-3,498
2495,263	-12,5	-3,499
2506,068	-12,5	-3,498
2516,873	-12	-3,499
2527,661	-12	-3,499
2538,454	-12	-3,499
2549,26	-11,5	-3,5
2560,065	-11,5	-3,499
2570,858	-11,5	-3,499
2581,652	-11,5	-3,499
2592,439	-11	-3,499
2603,239	-11	-3,499
2614,044	-11	-3,467
2624,849	-11	-3,17
2635,661	-6,5	-2,88
2646,442	-6	-2,938
2657,241	-4,5	-2,729
2668,035	-6	-2,875
2678,834	-4,5	-2,731
2689,628	-5	-2,798
2700,433	-6	-2,878
2711,232	-4,5	-2,708
2722,038	-3	-2,602
2732,837	-2,5	-2,453
2743,625	-3,5	-2,644
2754,418	-3	-2,568
2765,223	-5,5	-2,834
2776,011	-9	-3,033
2786,804	-10	-3,326
2797,609	-10	-3,5
2808,403	-10	-3,498
2819,202	-10	-3,494
2830,002	-9	-3,446
2840,807	-4,5	-2,953
2851,612	-2,5	-2,262
2862,412	-1,5	-2,013
2873,211	-1,5	-1,993
2884,017	-1	-1,571
2894,822	-0,5	-1,086
2905,627	1,5	-0,686
2916,415	3	-0,462
2927,214	3,5	-0,334
2938,019	4	-0,022
2948,813	4	-0,001
2959,606	4	-0,005
2970,406	4	-0,01
2981,205	4	-0,023
2992,016	3,5	-0,02
3002,816	4	-0,016
3013,621	4	-0,021
3024,42	2	-0,149
3035,22	1,5	-0,481
3046,025	1	-0,609
3056,831	0,5	-1,116
3067,636	0	-1,872
3078,435	-1	-2,174
3089,229	-1,5	-2,39
3100,022	-1,5	-2,371
3110,822	-1	-2,264
3121,639	-1	-2,27
3132,432	-3	-2,713
3143,244	-2,5	-2,567
3154,049	-1,5	-2,276
3164,842	-1,5	-2,46
3175,648	-1,5	-2,369
3186,447	-1,5	-2,289
3197,247	-1	-2,278
3208,046	-1,5	-2,416
3218,845	-1	-2,441
3229,633	-3	-2,591
3234,84	4	0