Folder: Data-filter--cyclical-tests-BEPE-project-/Cycling_tests/_60perc/_1gap/entrada

Note: README.md
# Data filter (cyclical tests BEPE project)
python aplication to treat data get by fatigue testing machine

File: _2.txt
Time (s)	Load (N)	Displacement (mm)
0	0	-0,023
10,617	0	-0,536
21,207	0	-0,619
31,796	0	-0,664
42,386	-1	-0,882
52,981	-2	-1,084
63,564	-2,5	-1,238
74,16	-2,5	-1,358
84,779	-3	-1,553
95,381	-4	-1,856
105,982	-5,5	-2,249
116,571	-6	-2,524
127,173	-8	-2,917
137,774	-10,5	-3,34
148,37	-12,5	-3,465
158,959	-12,5	-3,482
169,542	-12,5	-3,488
180,144	-12,5	-3,495
190,745	-12,5	-3,499
201,346	-12,5	-3,499
211,948	-12,5	-3,5
222,555	-12	-3,25
233,157	-10	-2,966
243,746	-9,5	-2,861
254,347	-9,5	-2,83
264,937	-7,5	-2,609
275,532	-7,5	-2,596
286,128	-8	-2,627
296,723	-7,5	-2,56
307,318	-5,5	-2,203
317,92	-5,5	-2,214
328,509	-4,5	-2,004
339,105	-5	-2,098
349,724	-4	-1,838
360,331	-3	-1,703
370,945	-3	-1,574
381,558	-2	-1,445
392,172	-1,5	-1,332
402,773	-1,5	-1,3
413,368	-1	-1,182
423,97	-1	-1,081
434,571	0	-0,864
445,167	0	-0,501
455,786	0,5	-0,184
466,375	1	-0,162
476,977	1,5	-0,038
487,572	1,5	-0,024
498,204	1,5	-0,007
508,811	1,5	-0,004
519,418	1,5	-0,003
530,02	1,5	-0,002
540,645	1,5	0
551,24	1,5	0
561,842	1,5	-0,002
572,467	1,5	-0,001
583,081	1,5	0
593,682	1,5	-0,023
604,289	1,5	-0,191
614,915	0	-0,602
625,534	-0,5	-0,857
636,154	-1	-1,314
646,767	-2	-1,65
657,38	-2,5	-1,895
667,976	-3	-2,184
678,595	-3	-2,21
689,233	-4	-2,453
699,84	-4,5	-2,578
710,429	-5,5	-2,693
721,037	-5	-2,585
731,656	-5,5	-2,812
742,276	-6	-2,928
752,895	-7,5	-3,219
763,514	-8,5	-3,374
774,134	-9	-3,407
784,747	-10	-3,46
795,348	-10,5	-3,494
805,962	-10,5	-3,498
816,581	-10	-3,343
827,201	-9	-2,982
837,808	-6,5	-2,584
848,421	-4,5	-2,105
859,053	-1,5	-1,43
869,678	0	-0,843
880,298	0,5	-0,343
890,929	1,5	-0,073
901,548	2	-0,015
912,168	2	-0,002
922,781	1,5	-0,079
933,395	1,5	-0,452
944,032	-0,5	-1,079
954,645	-2	-1,813
965,253	-2,5	-2,071
975,872	-4,5	-2,581
986,492	-6	-3,027
997,093	-9,5	-3,452
1007,706	-10	-3,495
1018,314	-10	-3,5
1028,921	-7	-2,721
1039,528	-4,5	-2,223
1050,148	-2	-1,703
1060,761	-0,5	-1,173
1071,369	0	-0,663
1081,97	0,5	-0,312
1092,584	1,5	-0,085
1103,209	1,5	-0,012
1113,816	1,5	-0,002
1124,436	1,5	-0,262
1135,043	0	-0,619
1145,656	-1,5	-1,487
1156,252	-1,5	-1,701
1166,859	-2,5	-2,018
1177,467	-4	-2,5
1188,074	-5	-2,81
1198,693	-6,5	-3,118
1209,295	-9	-3,446
1219,92	-9,5	-3,495
1230,546	-9,5	-3,5
1241,165	-8	-3,034
1251,778	-2	-1,828
1262,38	-0,5	-1,218
1272,981	0	-0,58
1283,601	1	-0,132
1294,226	1,5	-0,016
1304,827	2	-0,004
1315,441	1,5	-0,097
1326,048	0	-0,629
1336,644	-0,5	-1,082
1347,275	-1	-1,375
1357,876	-1,5	-1,848
1368,484	-3	-2,261
1379,085	-4	-2,552
1389,693	-5	-2,875
1400,294	-6,5	-3,298
1410,895	-7,5	-3,385
1421,521	-9	-3,473
1432,128	-9,5	-3,484
1442,736	-9,5	-3,492
1453,343	-9,5	-3,494
1463,956	-9,5	-3,466
1474,564	-9,5	-3,462
1485,177	-8	-3,012
1495,802	-3,5	-2,207
1506,428	-2	-1,726
1517,023	-1	-1,284
1527,625	0	-0,939
1538,25	0	-0,558
1548,858	0,5	-0,224
1559,483	1,5	-0,016
1570,096	2	-0,002
1580,71	1	-0,413
1591,317	-0,5	-1,124
1601,918	-1,5	-1,602
1612,532	-3	-2,221
1623,163	-4,5	-2,769
1633,771	-5	-2,92
1644,372	-6,5	-3,269
1654,979	-6	-3,237
1665,599	-9	-3,466
1676,206	-9	-3,475
1686,814	-9	-3,483
1697,433	-9,5	-3,495
1708,028	-9,5	-3,495
1718,636	-9	-3,487
1729,249	-9,5	-3,494
1739,851	-9,5	-3,497
1750,464	-9,5	-3,498
1761,071	-9	-3,497
1771,685	-9,5	-3,498
1782,298	-9	-3,498
1792,905	-9,5	-3,499
1803,507	-9	-3,5
1814,126	-9,5	-3,36
1824,74	-5	-2,477
1835,353	-6	-2,758
1845,966	-8	-2,996
1856,586	-8,5	-3,105
1867,205	-9	-3,244
1877,819	-9	-3,5
1888,432	-9,5	-3,5
1899,033	-9	-3,497
1909,653	-9	-3,496
1920,266	-9	-3,496
1930,88	-9	-3,492
1941,505	-9	-3,495
1952,118	-9	-3,494
1962,732	-9	-3,488
1973,339	-8,5	-3,481
1983,959	-9	-3,488
1994,566	-9	-3,494
2005,185	-9	-3,497
2015,781	-9	-3,496
2026,4	-9	-3,484
2037,014	-9	-3,48
2047,627	-9	-3,484
2058,24	-9	-3,483
2068,848	-7,5	-3,416
2079,467	-7	-3,316
2090,068	-3,5	-2,564
2100,67	-1,5	-1,857
2111,283	-0,5	-1,091
2121,897	0	-0,661
2132,498	0	-0,645
2143,105	2	-0,032
2153,707	1,5	-0,005
2164,314	1,5	-0,006
2174,922	1	-0,164
2185,529	-0,5	-1,189
2196,13	-3	-2,258
2206,738	-6,5	-2,92
2217,345	-8,5	-3,5
2227,959	-9	-3,498
2238,566	-8,5	-3,459
2249,167	-5	-2,922
2259,775	-2	-2,031
2270,394	-2	-2,066
2280,99	-1	-1,575
2291,591	-0,5	-1,313
2302,21	-0,5	-1,068
2312,8	2	-0,091
2323,419	1,5	-0,004
2334,021	1,5	-0,026
2344,646	1	-0,149
2355,253	0	-0,676
2365,861	-0,5	-1,321
2376,462	-3	-2,247
2387,07	-5,5	-2,749
2397,683	-8,5	-3,461
2408,302	-8	-3,498
2418,922	-8	-3,48
2429,529	-5	-3,168
2440,149	-5,5	-3,233
2450,75	-2	-2,071
2461,357	-1,5	-1,83
2471,953	0	-0,938
2482,572	1,5	-0,002
2493,161	1	-0,112
2503,775	-0,5	-1,16
2514,388	-4	-2,456
2524,996	-8	-3,5
2535,597	-7,5	-3,454
2546,204	-3	-2,539
2556,818	-0,5	-1,04
2567,431	1,5	-0,012
2578,045	1,5	-0,011
2588,652	0,5	-0,189
2599,259	0	-0,973
2609,849	-1	-1,753
2620,45	-4,5	-2,667
2631,04	-7,5	-3,186
2641,647	-7	-3,14
2652,236	-7,5	-3,498
2662,844	-7,5	-3,499
2673,445	-7,5	-3,491
2684,053	-6	-3,384
2694,654	-3	-2,608
2705,267	-1,5	-1,892
2715,893	-1,5	-1,863
2726,494	-0,5	-1,427
2737,096	-1	-1,713
2747,685	-1,5	-2,1
2758,292	-3	-2,666
2768,888	-4	-2,991
2779,495	-5,5	-3,307
2790,108	-7	-3,438
2800,698	-7	-3,473
2811,293	-7,5	-3,495
2821,889	-7,5	-3,496
2832,49	-7,5	-3,498
2843,103	-7	-3,5
2853,699	-7	-3,445
2864,312	-7	-3,175
2874,908	-6	-3,031
2885,527	-4	-2,679
2896,14	-2,5	-2,349
2906,754	-1,5	-2,049
2917,355	-1	-1,826
2927,969	-0,5	-1,506
2938,582	0	-1,064
2949,183	0	-0,825
2959,791	0	-0,721
2970,404	0	-0,667
2981,012	0,5	-0,457
2991,625	0,5	-0,263
3002,22	1	-0,151
3012,822	1,5	-0,059
3023,411	1,5	-0,038
3034,031	1,5	-0,022
3044,638	1,5	-0,012
3055,245	2	-0,003
3065,847	1,5	-0,002
3076,448	2	-0,001
3087,044	1,5	-0,001
3097,645	1,5	-0,12
3108,252	1,5	-0,441
3118,854	0	-0,857
3129,449	0	-0,942
3140,063	-0,5	-1,332
3150,664	-0,5	-1,63
3161,271	-1	-1,962
3171,861	-1	-1,947
3177,8	2	0