Folder: Data-filter--cyclical-tests-BEPE-project-/Cycling_tests/_20perc/_2gap/entrada

Note: README.md
# Data filter (cyclical tests BEPE project)
python aplication to treat data get by fatigue testing machine

File: _1.txt
Time (s)	Load (N)	Displacement (mm)
83,067	-13	-1,804
83,901	1,5	-0,588
84,699	-29	-3,495
85,948	3,5	-0,083
86,781	-29	-3,491
87,674	1	-0,173
88,497	-11,5	-2,121
89,349	-20,5	-2,495
90,187	3,5	-0,001
91,01	-28	-3,467
91,849	-3	-0,783
92,666	-6	-1,391
93,525	-29	-3,214
94,34	3,5	-0,008
95,138	-19,5	-3,009
95,936	-13	-1,894
96,74	3,5	-0,283
97,593	-29	-3,495
98,42	0	-0,24
99,254	-11	-2,054
100,076	-22	-2,639
100,922	3,5	-0,001
101,738	-27,5	-3,444
102,548	-5	-1,021
103,382	-5	-1,248
104,168	-29	-3,499
104,978	3	-0,045
105,866	-18	-2,881
106,753	-9,5	-1,57
107,587	-0,5	-0,796
108,409	-28,5	-3,498
109,243	3	-0,061
110,102	-15	-2,714
110,917	-16	-2,148
111,712	3,5	0
112,579	-28,5	-3,489
113,809	3,5	-0,001
114,679	-27,5	-3,472
115,549	-1,5	-0,524
116,365	-6,5	-1,654
117,229	-26	-2,962
118,093	3,5	-0,002
118,939	-26,5	-3,438
119,803	-3	-0,819
120,667	-7	-1,689
121,507	-27	-2,954
122,347	3,5	-0,003
123,235	-27	-3,443
124,075	-3	-0,885
124,95	-8	-1,679
125,803	-24,5	-2,905
126,631	3,5	-0,002
127,447	-24,5	-3,377
128,262	-7	-1,328
129,096	-3	-0,957
129,924	-28,5	-3,499
130,811	3,5	-0,016
131,677	-20,5	-3,106
132,517	-9	-1,568
133,38	-2,5	-0,925
134,226	-28,5	-3,499
135,06	3,5	-0,029
135,9	-16,5	-2,748
136,746	-13	-1,896
137,592	2	-0,452
138,402	-28	-3,495
139,248	1	-0,154
140,514	-28	-3,492
141,318	-0,5	-0,468
142,223	-11,5	-2,21
143,117	-15	-2,174
143,915	3,5	-0,03
144,695	-27	-3,466
145,571	-1	-0,633
146,393	-7	-1,623
147,24	-25,5	-2,971
148,049	4	-0,004
148,871	-22,5	-3,271
149,663	-10,5	-1,691
150,491	0	-0,628
151,325	-28	-3,498
152,105	0,5	-0,217
152,933	-10	-2,102
153,809	-18	-2,485
154,631	3,5	-0,001
155,465	-27	-3,466
156,263	-3,5	-0,945
157,073	-5	-1,335
157,889	-28	-3,5
158,715	3,5	-0,019
159,502	-15	-2,653
160,288	-15	-2,2
161,117	4	-0,052
161,914	-27,5	-3,479
162,742	-1,5	-0,644
163,552	-6,5	-1,557
164,326	-27,5	-3,489
284,067	-17,5	-2,987
284,902	-8,5	-1,734
285,708	3	-0,426
286,492	-26	-3,492
287,29	0	-0,575
288,093	-5	-1,58
288,879	-26	-3,462
289,659	4	-0,027
290,439	-12	-2,438
291,207	-19,5	-2,666
292,359	-3,5	-1,188
293,157	-26	-3,499
293,937	3	-0,061
294,741	-10	-2,353
295,539	-18	-2,549
296,367	4	-0,001
297,159	-24	-3,442
297,965	-3,5	-1,119
298,761	-2,5	-1,027
299,553	-26	-3,498
300,344	3	-0,067
301,124	-9	-2,172
301,904	-20,5	-2,724
302,678	4	-0,003
303,458	-19	-3,172
304,208	-11	-1,891
305,006	4	-0,189
305,781	-25,5	-3,48
306,566	-2	-0,839
307,346	-3	-1,144
308,126	-26	-3,499
308,918	3	-0,084
309,704	-9,5	-2,19
310,52	-17,5	-2,553
311,326	4	-0,001
312,122	-23,5	-3,413
312,902	-5,5	-1,36
313,682	1	-0,649
314,48	-26	-3,496
315,278	1	-0,244
316,058	-6	-1,763
316,879	-24	-3,024
317,641	4	-0,01
318,427	-15	-2,831
319,219	-13	-2,126
320,017	4	-0,004
320,833	-25,5	-3,48
321,631	-2	-0,822
322,424	-4,5	-1,333
438,144	-5	-1,563
438,931	-25	-3,36
439,698	4	-0,03
440,484	-11	-2,502
441,264	-16,5	-2,462
442,032	4	-0,002
442,824	-20,5	-3,362
443,621	-5,5	-1,433
444,378	2	-0,516
445,147	-25	-3,49
445,932	-0,5	-0,621
446,73	-4,5	-1,478
447,516	-25	-3,486
448,29	4	-0,034
449,046	-10,5	-2,352
449,838	-18,5	-2,645
450,636	4	-0,002
451,404	-19,5	-3,316
452,19	-6	-1,512
452,97	2,5	-0,481
453,756	-25	-3,493
454,529	0	-0,584
455,31	-4,5	-1,458
456,101	-25	-3,5
456,869	4	-0,046
457,65	-10	-2,323
458,429	-18	-2,679
459,197	4,5	-0,003
459,983	-18,5	-3,234
460,745	-9,5	-1,854
461,513	4	-0,077
462,287	-24,5	-3,472
463,055	-4	-1,25
463,841	-1	-0,874
464,621	-25	-3,498
465,383	0,5	-0,303
466,151	-5,5	-1,622
466,919	-25	-3,472
467,681	3,5	-0,039
468,461	-10,5	-2,46
469,235	-18	-2,647
470,003	4	-0,003
470,771	-18	-3,178
471,533	-9,5	-1,908
472,307	4	-0,064
473,086	-24,5	-3,474
473,867	-2	-0,982
474,646	-2	-1,054
550,278	-12,5	-2,658
551,052	-14	-2,342
551,826	4	-0,001
552,588	-21	-3,364
553,362	-6	-1,599
554,13	3	-0,412
554,904	-24,5	-3,49
555,664	-1	-0,736
556,446	-4	-1,328
557,226	-24,5	-3,499
558,03	4	-0,04
558,78	-8,5	-2,232
559,554	-20	-2,83
560,316	4	-0,005
561,096	-15,5	-3,004
561,857	-11,5	-2,072
562,625	4,5	0
563,393	-23	-3,447
564,161	-4	-1,313
564,929	0	-0,732
565,691	-24,5	-3,496
566,435	0	-0,612
567,221	-4,5	-1,449
567,989	-24,5	-3,5
568,763	4	-0,047
569,526	-9	-2,235
570,293	-19,5	-2,822
571,061	4	-0,005
571,829	-15,5	-2,989
572,597	-11,5	-2,099
573,365	4	0
574,127	-23	-3,44
574,907	-4	-1,262
575,681	-0,5	-0,764
576,431	-24,5	-3,495
577,204	0	-0,511
577,984	-5	-1,552
578,741	-24,5	-3,5
579,526	4	-0,032
580,306	-10,5	-2,444
581,062	-17	-2,673
581,848	4	-0,002
582,622	-19	-3,266
583,373	-8,5	-1,783
584,141	4	-0,284
584,938	-24	-3,487
585,682	-1,5	-0,967
586,456	-2	-1,023
662,34	-24	-3,497
663,12	1,5	-0,198
663,894	-6	-1,896
664,68	-22,5	-3,119
665,441	4	-0,014
666,215	-13,5	-2,726
666,989	-12,5	-2,248
667,773	4	-0,001
668,531	-21,5	-3,414
669,299	-4,5	-1,416
670,055	1,5	-0,505
670,811	-24	-3,49
671,592	-0,5	-0,695
672,353	-3,5	-1,326
673,115	-24	-3,499
673,889	3,5	-0,066
674,633	-7,5	-2,118
675,389	-22,5	-2,96
676,157	4	-0,008
676,913	-14,5	-2,812
677,681	-11,5	-2,192
678,437	4	-0,001
679,193	-20,5	-3,384
679,961	-5,5	-1,563
680,723	3	-0,42
681,479	-24	-3,487
682,235	-1,5	-0,922
682,991	-2,5	-1,085
683,758	-24	-3,498
684,514	1,5	-0,235
685,27	-5,5	-1,858
686,038	-24	-3,252
686,8	4	-0,021
687,568	-11,5	-2,576
688,312	-19,5	-2,643
689,068	4,5	-0,003
689,848	-17,5	-3,225
690,616	-7,5	-1,814
691,372	4	-0,116
692,152	-23,5	-3,477
692,92	-2,5	-1,054
693,688	-2	-0,964
694,456	-24	-3,498
695,224	1	-0,263
695,968	-5	-1,624
696,73	-24	-3,489
697,492	3,5	-0,042
698,26	-9,5	-2,324
699,016	-18	-2,819
3212,206	-2,5	-2,318
3212,95	-6	-2,875
3213,706	4	-0,007
3214,45	-3,5	-2,814
3215,206	-2	-2,292
3215,95	4,5	-0,001
3216,022	4,5	0

File: _4.txt
Time (s)	Load (N)	Displacement (mm)
0	0	-0,04
9,618	-33	-3,498
19,722	-6	-1,075
29,381	-25,5	-2,798
39,13	-1,5	-0,716
48,556	-30,5	-3,493
58,155	1	-0,074
67,599	-13	-2,139
76,97	-29,5	-3,241
86,22	-0,5	-0,317
95,413	1,5	-0,448
104,737	-28	-3,454
114,036	-13,5	-1,918
123,144	2,5	-0,027
132,809	-24	-3,397
142,006	-21,5	-2,672
151,264	2	-0,069
160,684	-8,5	-1,813
169,941	-27,5	-3,498
179,132	-6,5	-1,364
188,306	3	-0,002
197,453	-8,5	-1,882
285,134	-21,5	-2,656
293,912	-12,5	-2,02
302,731	-6	-1,335
311,581	0	-0,339
320,826	0	-0,687
368,043	1	-0,183
376,815	3	-0,024
385,556	3,5	-0,012
394,724	-3,5	-1,144
403,501	-4,5	-1,434
412,273	-5,5	-1,71
421,104	-11	-2,46
429,804	-12	-2,541
438,51	-11	-2,471
447,251	-12	-2,58
455,992	-14,5	-2,802
465,058	-25	-3,496
473,721	-24,5	-3,493
519,745	-12	-2,118
528,282	-19	-2,73
536,856	-20	-2,876
545,411	-24,5	-3,291
553,985	-24,5	-3,499
562,528	-24,5	-3,494
571,15	-24	-3,488
579,729	-22	-3,405
625,807	-24	-3,332
634,32	-24	-3,497
642,846	-24	-3,472
651,335	-15	-3,024
659,783	-6	-1,787
668,326	-1,5	-0,884
676,858	3,5	0
685,317	3,5	-0,015
693,783	0	-0,517
702,26	-8	-1,919
710,744	-24	-3,01
719,185	-24	-3,495
727,693	-19,5	-3,36
809,744	3,5	-0,124
818,192	3,5	-0,012
826,609	0	-0,533
835,045	-8	-1,836
843,522	-22,5	-3,064
852	-23,5	-3,497
860,429	-20	-3,382
868,871	-8,5	-2,315
877,312	-3	-1,291
1033,568	3,5	0
1042,027	3,5	-0,016
1050,457	-0,5	-0,683
1058,868	-12	-2,336
1067,279	-22,5	-3,498
1075,727	-18,5	-3,378
1084,168	-5,5	-2,001
1092,616	1,5	-0,475
1101,046	4	-0,005
1109,463	0	-0,616
1117,869	-9	-2,074
1126,334	-22,5	-3,363
1134,752	-22,5	-3,494
1436,066	3,5	-0,03
1444,46	3,5	-0,014
1452,859	-0,5	-0,683
1461,265	-8	-2,014
1469,665	-21,5	-3,44
1478,07	-21,5	-3,484
1486,512	-13	-2,986
1494,905	-4	-1,638
1503,299	3	-0,39
1511,728	3,5	-0,002
1520,128	3	-0,051
1528,515	-1	-0,808
1536,939	-6	-1,814
1545,35	-15,5	-2,798
1553,744	-21,5	-3,499
1562,131	-21	-3,476
1570,513	-11,5	-2,842
1578,906	-4	-1,631
1587,336	2	-0,467
1595,699	3,5	-0,004
1604,069	0,5	-0,32
1612,474	-4,5	-1,568
1620,85	-15,5	-2,778
1629,255	-21,5	-3,498
1637,661	-21	-3,484
1646,072	-12	-2,927
1654,478	-4,5	-1,771
1662,871	1	-0,566
1671,229	3,5	-0,005
1679,574	0	-0,554
1687,98	-7	-1,991
1696,35	-21,5	-3,472
1704,737	-21,5	-3,487
1713,119	-11	-2,783
1721,494	-3	-1,369
1729,894	3,5	0
1738,245	2	-0,129
1746,639	-3	-1,394
1755,02	-16,5	-2,835
1763,408	-21,5	-3,496
1771,765	-11,5	-2,968
1780,117	-2,5	-1,292
1788,493	3,5	-0,001
1797,264	3	-0,544
1805,627	4	-0,002
1814,015	3,5	-0,033
1822,372	0	-0,508
1830,742	-3,5	-1,445
1839,099	-14,5	-2,654
1847,487	-21	-3,499
1855,887	-21	-3,488
1864,232	-12	-3,014
1872,625	-5,5	-2,07
1881,007	-1	-0,943
1889,341	3,5	-0,001
1897,692	3,5	-0,027
1906,055	0	-0,458
1914,425	-2,5	-1,304
1922,801	-7	-2,058
1931,135	-20,5	-3,246
1939,468	-20,5	-3,493
1947,843	-15,5	-3,318
1956,207	-5,5	-2,18
1964,546	-1	-0,875
1972,904	3,5	-0,001
1981,279	3,5	-0,024
1989,655	0	-0,498
1998,03	-4	-1,574
2006,364	-20	-3,193
2014,697	-20	-3,483
2023,079	-10	-2,825
2031,46	-2,5	-1,399
2039,812	3,5	-0,001
2048,164	1,5	-0,141
2056,485	-5	-1,839
2064,855	-19,5	-3,447
2073,176	-19	-3,466
2081,534	-7,5	-2,432
2089,879	-1	-0,918
2098,231	3,5	-0,004
2106,594	0	-0,514
2114,976	-7	-2,093
2123,327	-19,5	-3,499
2131,679	-17	-3,42
2140,048	-5	-2,022
2148,412	0	-0,64
2156,751	4	-0,008
2165,091	0	-0,628
2173,508	-3,5	-1,621
2181,848	-16,5	-3,038
2190,169	-19,5	-3,493
2198,527	-12	-3,011
2206,866	-3	-1,583
2215,218	0,5	-0,599
2223,569	3,5	-0,002
2231,921	1,5	-0,193
2240,284	-2	-1,371
2248,618	-16,5	-3,01
2256,963	-19,5	-3,494
2265,321	-11,5	-3,062
2273,667	-2	-1,267
2282,036	3,5	-0,001
2290,382	2,5	-0,083
2298,739	-2	-1,274
2307,121	-12,5	-2,699
2315,52	-19	-3,499
2323,884	-16	-3,408
2332,205	-4	-1,922
2340,557	2	-0,486
2348,878	3,5	-0,022
2357,224	-1	-1,069
2365,569	-10,5	-2,45
2373,921	-19	-3,499
2382,255	-15,5	-3,391
2390,6	-4	-1,954
2398,921	2,5	-0,474
2407,255	3,5	-0,006
2415,582	0	-0,51
2423,922	-6,5	-2,144
2432,255	-18,5	-3,499
2440,619	-17	-3,448
2448,959	-4,5	-2,167
2457,328	0	-0,837
2465,668	3,5	-0,003
2473,989	1,5	-0,276
2482,323	-5	-1,774
2490,644	-18	-3,275
2498,996	-18	-3,494
2507,317	-9	-2,874
2515,681	-2,5	-1,556
2524,014	3,5	-0,082
2532,36	4	-0,02
2540,687	0	-0,894
2549,021	-5	-2,027
2557,366	-17,5	-3,203
2565,706	-17,5	-3,496
2574,117	-14,5	-3,405
2582,469	-6	-2,42
2590,832	-1,5	-1,256
2599,16	3,5	0
2607,487	3,5	-0,021
2615,839	0,5	-0,478
2624,16	-3	-1,749
2632,47	-14,5	-3,029
2640,846	-16	-3,498
2649,179	-15	-3,426
2657,507	-4	-2,203
2665,852	-0,5	-0,932
2674,204	4	-0,001
2682,537	3,5	-0,04
2690,871	0	-0,92
2699,198	-4	-2,099
2707,58	-12,5	-3,052
2715,925	-15	-3,494
2724,277	-10,5	-3,258
2732,628	-3	-1,848
2740,956	3,5	-0,327
2749,307	4	-0,005
2757,635	0	-0,646
2766,022	-3,5	-1,943
2774,356	-13,5	-3,499
2782,689	-13,5	-3,464
2791,023	-4	-2,48
2799,381	0	-0,839
2807,714	3,5	-0,006
2816,036	0	-0,946
2824,369	-7	-2,564
2832,697	-13,5	-3,498
2841,018	-7,5	-3,148
2849,346	-2	-1,598
2857,691	3,5	-0,3
2866,007	3,5	-0,03
2874,322	-0,5	-1,465
2882,65	-11	-3,06
2890,989	-12,5	-3,49
2899,347	-6	-2,967
2907,686	-1,5	-1,338
2916,038	3,5	-0,001
2924,383	3	-0,055
2932,717	0	-1,239
2941,08	-5,5	-2,582
2949,438	-12	-3,498
2957,778	-7,5	-3,22
2966,123	-1	-1,447
2974,462	4	-0,001
2982,802	2	-0,161
2991,129	-1	-1,664
2999,487	-10,5	-3,086
3007,821	-12	-3,495
3016,196	-7,5	-3,284
3024,554	-1,5	-1,913
3032,905	3	-0,396
3041,263	4	-0,003
3049,584	1	-0,354
3057,93	-1	-1,773
3066,275	-9,5	-3,128
3074,633	-10,5	-3,495
3083,014	-8	-3,351
3091,342	-2	-2,085
3099,687	0	-0,852
3108,027	4	-0,002
3116,378	1,5	-0,211
3124,73	0	-1,529
3133,063	-5	-2,731
3141,391	-10,5	-3,499
3149,748	-10	-3,472
3158,1	-3,5	-2,664
3166,488	-0,5	-1,254
3174,809	3,5	-0,001
3183,173	2,5	-0,117
3191,53	0	-1,59
3199,858	-9	-3,1
3208,209	-10	-3,495
3216,531	-5,5	-3,11
3224,846	-1	-1,478
3233,186	4	-0,046
3241,549	3,5	-0,011
3246,037	3,5	0

File: _5.txt
Time (s)	Load (N)	Displacement (mm)
0	0,5	-0,146
12,204	-18	-1,895
24,197	-10,5	-1,806
36,497	2	-0,04
48,37	-24	-3,394
59,996	-9	-1,377
71,793	-6,5	-1,384
83,57	-25	-2,632
95,329	3	-0,169
106,962	-28	-3,486
119,184	3	-0,077
130,847	-27,5	-3,481
142,384	-7	-1,368
154,161	-7	-1,588
165,489	-27,5	-3,486
176,876	-12,5	-1,942
188,678	-3	-1,017
200,257	-27	-3,498
212,034	3,5	-0,011
223,469	-9	-2,154
234,617	-26,5	-3,478
246,256	-1,5	-0,682
257,5	3,5	-0,001
268,792	-9	-2,022
280,442	-22,5	-2,868
291,612	-3,5	-1,003
302,725	3,5	-0,023
314,286	-11	-2,361
325,428	-25,5	-3,482
336,509	-25,5	-3,292
347,638	-11,5	-1,788
358,63	-2,5	-0,971
369,525	0	-0,414
380,504	3,5	-0,018
391,544	3,5	-0,001
402,403	3,5	-0,001
413,341	3,5	-0,223
424,344	-3	-1,009
435,233	-4,5	-1,412
446,537	-24	-3,469
457,48	-25	-3,493
468,286	-24,5	-3,49
479,163	-24,5	-3,497
489,884	-24,5	-3,486
500,612	-24	-3,476
511,297	-21,5	-3,384
559,63	-9,5	-1,939
570,736	1	-0,287
581,367	-3	-1,089
591,92	-14	-2,403
602,486	-24	-3,499
613,483	-18,5	-2,751
624,133	-24	-3,5
671,632	-24	-3,499
682,173	-20	-3,378
692,727	-7	-2,04
703,664	-11,5	-2,607
714,241	-3,5	-1,413
724,765	3,5	0
735,312	3,5	-0,051
746,304	4	-0,005
756,863	0,5	-0,354
767,391	-8,5	-1,798
777,964	-23,5	-3,09
788,535	-23,5	-3,496
799,107	-18,5	-3,333
809,642	-6,5	-2,02
820,189	0	-0,777
830,731	4	-0,002
841,248	1,5	-0,168
852,198	4	-0,01
862,727	0	-0,604
873,274	-6,5	-1,793
883,828	-22,5	-3,19
894,388	-23	-3,491
904,923	-12,5	-2,824
915,482	-3,5	-1,422
926,035	4	-0,17
936,565	4	-0,016
947,106	-1,5	-0,858
957,612	-14,5	-2,603
968,123	-22,5	-3,496
978,67	-16,5	-3,234
989,158	-3,5	-1,498
999,657	4	-0,001
1010,162	3	-0,088
1020,716	-3	-1,234
1031,149	-22,5	-3,16
1041,685	-22	-3,491
1052,172	-12	-2,832
1062,666	-3	-1,302
1073,171	4	-0,001
1083,67	1	-0,349
1094,158	-10,5	-2,179
1104,687	-22	-3,499
1115,186	-20,5	-3,436
1125,692	-6	-2,042
1136,209	2,5	-0,452
1146,763	4	-0,004
1157,25	-0,5	-0,732
1167,75	-13,5	-2,459
1178,243	-22	-3,496
1188,766	-12,5	-2,943
1199,254	-3	-1,379
1209,801	4	0
1220,29	3	-0,072
1230,818	-3,5	-1,387
1241,329	-21	-3,082
1251,871	-21,5	-3,49
1262,383	-8	-2,442
1272,839	0	-0,722
1283,297	4	-0,007
1293,772	0	-0,481
1304,248	-10	-2,223
1314,759	-21,5	-3,498
1325,223	-12	-2,901
1335,728	-2,5	-1,187
1346,215	4	-0,002
1356,727	1,5	-0,186
1367,196	-8	-2,027
1377,642	-21,5	-3,499
1388,117	-15	-3,242
1398,58	-3	-1,483
1409,08	4	0
1419,579	4	-0,037
1430,096	-3,5	-1,428
1440,596	-21	-3,238
1451,065	-20,5	-3,469
1461,553	-5	-1,984
1472,07	4	-0,163
1482,552	3,5	-0,057
1493,021	-4	-1,528
1503,49	-21	-3,288
1514,002	-20,5	-3,475
1524,483	-5,5	-2,064
1534,958	4	-0,012
1545,434	3	-0,122
1555,879	-7,5	-2,069
1566,355	-21	-3,498
1576,818	-14,5	-3,205
1587,288	-2	-1,221
1597,745	4	-0,004
1608,208	0	-0,702
1618,654	-13,5	-2,658
1629,549	-10	-2,378
1640,03	-21	-3,498
1650,47	-11	-2,89
1660,922	-0,5	-0,969
1671,373	4	-0,007
1681,824	-1	-1,024
1692,245	-18	-2,986
1702,697	-20,5	-3,482
1713,131	-6	-2,246
1723,576	3,5	-0,449
1734,051	4	-0,018
1744,473	-4,5	-1,556
1754,87	-21	-3,499
1765,304	-12	-2,997
1775,719	0	-0,827
1786,14	4	-0,01
1796,628	0	-0,751
1807,061	-14,5	-2,75
1817,488	-20	-3,484
1827,976	-7,5	-2,398
1838,379	4	-0,18
1848,843	3,5	-0,046
1859,246	-6	-1,828
1869,686	-20	-3,499
1880,101	-13,5	-3,147
1890,534	-2	-1,222
1900,932	4	-0,008
1911,311	-3	-1,409
1921,72	-20,5	-3,494
1932,142	-14,5	-3,248
1942,545	-1,5	-1,095
1952,967	4,5	-0,006
1963,406	-1	-1,01
1973,846	-17	-3,002
1984,261	-19	-3,452
1994,64	-3	-1,584
2005,026	4	-0,003
2015,405	-0,5	-1,024
2025,839	-20	-3,045
2036,218	-19	-3,454
2046,597	-2,5	-1,446
2056,983	4	-0,003
2067,368	-2,5	-1,323
2077,759	-20	-3,5
2088,187	-12,5	-3,154
2098,596	-1,5	-1,082
2109,024	4	-0,006
2119,403	-2	-1,25
2129,831	-20	-3,326
2140,216	-14	-3,234
2150,613	-1,5	-1,112
2161,041	4	-0,003
2171,456	-0,5	-0,903
2181,836	-17	-2,965
2192,245	-18,5	-3,448
2202,624	-3	-1,6
2213,034	4	-0,001
2223,419	0,5	-0,378
2233,829	-10	-2,402
2244,262	-20	-3,496
2254,677	-8,5	-2,629
2265,081	3	-0,441
2275,478	3	-0,069
2285,876	-6,5	-1,933
2296,255	-20	-3,497
2306,664	-9,5	-2,737
2317,11	1	-0,648
2327,531	4	-0,034
2337,941	-4,5	-1,778
2348,332	-19,5	-3,499
2358,735	-10	-2,887
2369,139	0	-0,711
2379,542	3,5	-0,023
2389,964	-3	-1,499
2400,343	-19,5	-3,499
2410,723	-11	-2,953
2421,156	-1,5	-0,996
2431,553	4	-0,015
2441,939	-3	-1,527
2452,324	-19,5	-3,499
2462,704	-7,5	-2,563
2473,095	4	-0,04
2483,474	1,5	-0,237
2493,872	-7,5	-2,183
2504,269	-19,5	-3,498
2514,685	-10,5	-2,918
2525,07	-0,5	-0,832
2535,461	4	-0,013
2546,303	4	-0,007
2556,67	-3	-1,477
2567,056	-19,5	-3,499
2577,447	-10,5	-2,837
2587,827	-0,5	-0,738
2598,254	4	-0,018
2608,633	-3	-1,505
2619,019	-19,5	-3,499
2629,41	-12	-3,097
2639,819	-1	-0,988
2650,205	4	-0,014
2660,59	-1,5	-1,174
2670,97	-18	-3,212
2681,397	-17	-3,462
2691,776	-3	-1,792
2702,174	4	-0,001
2712,577	0	-0,544
2722,963	-10	-2,555
2733,33	-17	-3,482
2743,715	-3,5	-1,851
2754,119	4	-0,001
2764,51	0	-0,627
2774,908	-11	-2,678
2785,287	-16	-3,472
2795,655	-3,5	-1,889
2806,034	4	-0,001
2816,431	0,5	-0,619
2826,805	-13,5	-2,915
2837,178	-15	-3,455
2847,57	-2,5	-1,734
2857,997	4	-0,001
2868,4	1	-0,427
2878,78	-10,5	-2,754
2889,177	-15	-3,482
2899,539	-2,5	-1,81
2909,912	4	-0,002
2920,286	0	-0,77
2930,695	-8,5	-2,714
2941,068	-13,5	-3,472
2951,442	-2,5	-1,849
2961,875	4	0
2972,278	1,5	-0,283
2982,676	-4,5	-2,268
2993,055	-12,5	-3,496
3003,447	-4	-2,382
3013,856	2	-0,592
3024,247	4	-0,032
3034,609	-2,5	-1,899
3045	-12	-3,498
3055,398	-5	-2,778
3065,795	0	-0,832
3076,181	4	-0,019
3086,572	-1	-1,603
3096,945	-11,5	-3,499
3107,319	-6,5	-3,189
3117,698	-0,5	-1,101
3128,09	4	-0,004
3138,475	0	-0,926
3148,878	-7,5	-2,82
3159,264	-10,5	-3,476
3169,649	-2,5	-2,027
3180,07	4	-0,153
3190,444	1,5	-0,168
3200,811	-2,5	-2,164
3211,185	-10,5	-3,496
3221,558	-4	-2,676
3231,98	0,5	-0,824
3242,389	4	-0,015
3246,937	4	0