Folder: Data-filter--cyclical-tests-BEPE-project-/ensaios_Ciclicos/_newS/_2G60/entrada

Note: README.md
# Data filter (cyclical tests BEPE project)
python aplication to treat data get by fatigue testing machine

File: _2.txt
Time (s)	Load (N)	Displacement (mm)
0	-0,2	-0,031
10,672	0,92	-0,102
21,285	1,24	0
31,881	1,42	-0,001
42,5	1,58	-0,001
53,114	1,7	-0,003
63,727	1,8	-0,006
74,335	1,88	-0,005
84,936	1,92	-0,014
95,555	1,88	-0,025
106,163	1,7	-0,051
116,795	1,7	-0,065
127,431	1,24	-0,103
138,075	0,92	-0,142
148,688	0,36	-0,276
159,319	0	-0,342
169,951	0,88	-0,189
180,582	1,46	-0,114
191,238	2,22	-0,026
201,899	2,34	-0,019
212,56	2,44	-0,012
223,216	2,46	-0,006
233,865	2,48	-0,009
244,521	2,52	-0,009
255,188	2,52	-0,01
265,831	2,46	-0,017
276,481	2,38	-0,041
287,112	2,38	-0,036
297,756	2,54	-0,018
308,417	2,62	-0,011
319,06	2,66	-0,005
329,716	2,66	-0,003
340,383	2,66	-0,001
351,027	2,66	-0,001
361,706	2,64	-0,12
372,361	1,3	-0,634
383,017	-1,26	-1,223
393,672	-3,64	-1,886
404,327	-6,58	-2,529
414,977	-10,18	-3,218
425,638	-13,24	-3,456
436,3	-13,9	-3,494
446,955	-13,88	-3,499
457,623	-12,78	-2,964
468,272	-9,04	-2,469
478,927	-4,42	-1,753
489,589	-2,02	-1,193
500,268	0,62	-0,404
510,917	2,38	-0,062
521,579	2,84	-0,019
532,252	2,9	-0,004
542,914	2,88	-0,001
553,575	2,88	-0,109
564,26	2,34	-0,457
574,928	2,18	-0,462
585,631	2,88	-0,306
596,31	1,38	-0,713
606,978	0,14	-0,873
617,645	0,02	-0,952
628,295	-0,26	-0,99
638,962	-0,32	-1,112
649,641	-0,86	-1,184
660,315	-0,7	-1,123
670,982	-1,42	-1,356
681,662	-1,96	-1,539
692,311	-2,64	-1,71
702,96	-3,7	-2,082
713,634	-5,54	-2,468
724,289	-6,5	-2,674
734,951	-6,52	-2,692
745,618	-8,26	-2,995
756,261	-9,62	-3,282
766,905	-10,86	-3,359
777,572	-11,9	-3,431
788,246	-12,82	-3,477
798,901	-13,06	-3,494
809,562	-13,06	-3,498
820,242	-12,98	-3,471
830,909	-11,24	-2,894
841,547	-9,26	-2,63
852,202	-6,18	-2,226
862,857	-4,18	-1,856
873,507	-3,82	-1,713
884,156	-3,84	-1,744
894,829	-4,68	-1,859
905,491	-6,12	-1,979
916,158	-3,78	-1,748
926,796	-4,1	-1,798
937,457	-2,48	-1,456
948,112	-1,9	-1,304
958,758	-1,36	-1,164
969,411	0,54	-0,554
980,061	1,66	-0,202
990,728	2,8	-0,041
1001,383	3,04	-0,021
1012,057	3,14	-0,005
1022,706	3,16	-0,004
1033,361	3,14	-0,001
1044,047	3,12	0
1054,696	3,1	-0,177
1065,364	3,12	-0,148
1076,007	3,14	0
1086,662	3,16	-0,001
1097,324	3,16	-0,001
1107,985	3,18	-0,003
1118,653	3,18	-0,003
1129,32	3,16	-0,009
1139,975	3,12	-0,018
1150,619	2,96	-0,046
1161,286	2,52	-0,075
1171,942	1,74	-0,214
1182,597	1,5	-0,262
1193,252	1,18	-0,318
1203,92	1,3	-0,376
1214,575	0,62	-0,602
1225,219	-0,36	-1,029
1235,892	-0,54	-1,025
1246,529	-1,32	-1,363
1257,191	-1,12	-1,329
1267,87	-1,76	-1,514
1278,514	-2,32	-1,798
1289,175	-2,72	-1,913
1299,83	-3,84	-2,255
1310,468	-6,74	-2,739
1321,165	-7,18	-2,77
1331,826	-9,38	-3,158
1342,488	-9,42	-3,5
1353,143	-9,34	-3,499
1363,799	-9,26	-3,498
1374,466	-9,2	-3,498
1385,103	-9,12	-3,493
1395,771	-9,08	-3,49
1406,432	-9,02	-3,488
1417,064	-8,92	-3,481
1427,713	-8,7	-3,468
1438,368	-7,74	-3,394
1449,024	-6,2	-3,257
1459,673	-5,56	-3,076
1470,323	-5,5	-3,118
1480,966	-6,28	-3,283
1491,615	-5,18	-3,083
1502,271	-5,04	-3,028
1512,932	-4,16	-2,882
1523,599	-4,26	-2,748
1534,237	-3,7	-2,557
1544,904	-3,8	-2,641
1555,56	-3,24	-2,522
1566,215	-2,9	-2,356
1576,87	-1,84	-1,993
1587,55	-1,76	-1,914
1598,205	-0,24	-1,185
1608,855	0,34	-0,898
1619,516	2	-0,506
1630,183	3	-0,198
1640,869	2,18	-0,41
1651,518	2,68	-0,369
1662,18	2,98	0
1672,817	3	-0,001
1683,466	3	-0,005
1694,116	2,9	-0,02
1704,777	2,86	-0,026
1715,445	2,8	-0,04
1726,094	2	-0,114
1736,773	2,08	-0,108
1747,411	1,4	-0,28
1758,09	0,98	-0,495
1768,757	0,94	-0,479
1779,419	0,44	-0,749
1790,068	1,04	-0,467
1800,718	0,76	-0,509
1811,397	1,7	-0,148
1822,041	2,06	-0,125
1832,69	2,6	-0,046
1843,333	2,4	-0,062
1854,001	2,54	-0,059
1864,656	2,4	-0,067
1875,299	2,28	-0,078
1885,955	1,88	-0,147
1896,592	1,34	-0,329
1907,242	1,24	-0,334
1917,897	1,56	-0,229
1928,564	1,48	-0,186
1939,226	1,5	-0,183
1949,869	1,86	-0,146
1960,501	1,8	-0,138
1971,162	1,78	-0,143
1981,829	1,98	-0,131
1992,497	1,96	-0,093
2003,146	2,52	-0,046
2013,814	2,56	-0,037
2024,469	2,72	-0,023
2035,112	2,68	-0,026
2045,762	2,66	-0,024
2056,429	2,48	-0,05
2067,084	2,38	-0,066
2077,734	2,06	-0,076
2088,383	1,86	-0,122
2099,039	1,78	-0,11
2109,7	1,9	-0,126
2120,361	1,54	-0,207
2131,005	0,84	-0,542
2141,654	0,26	-0,866
2152,298	-0,26	-1,256
2162,947	-0,76	-1,534
2173,602	-1,36	-1,885
2184,252	-2,2	-2,198
2194,895	-2,68	-2,462
2205,539	-2,76	-2,475
2216,212	-2,88	-2,548
2226,867	-3	-2,421
2237,529	-3,3	-2,51
2248,178	-2,46	-2,329
2258,827	-1,92	-2,093
2269,483	-1,9	-2,144
2280,126	-1,8	-2,078
2290,794	-0,88	-1,688
2301,449	-0,56	-1,515
2312,098	-0,78	-1,589
2322,754	-0,8	-1,564
2333,427	-0,08	-1,13
2344,101	0,38	-0,706
2354,774	0,72	-0,484
2365,417	1,02	-0,283
2376,073	1,74	-0,1
2386,728	1,74	-0,112
2397,39	1,22	-0,231
2408,063	2,02	-0,065
2418,724	1,84	-0,083
2429,38	1,42	-0,167
2440,023	1,28	-0,196
2450,685	0,72	-0,504
2461,352	0,9	-0,344
2472,013	0,92	-0,326
2482,669	0,7	-0,493
2493,324	0,9	-0,319
2503,979	0,5	-0,649
2514,629	0,24	-0,814
2525,296	0,18	-0,91
2535,952	-0,04	-1,144
2546,607	-0,6	-1,486
2557,269	-0,96	-1,703
2567,918	-1,04	-1,819
2578,561	-1,54	-2,078
2589,217	-1,6	-2,047
2599,866	-1,82	-2,115
2610,521	-1,82	-2,149
2621,195	-2,22	-2,359
2631,838	-3,44	-2,754
2642,512	-3,96	-2,906
2653,161	-5,5	-3,136
2663,822	-5,5	-3,497
2674,46	-5,52	-3,499
2685,103	-5,5	-3,496
2695,783	-5,5	-3,496
2706,42	-5,46	-3,494
2717,063	-5,46	-3,494
2727,725	-5,46	-3,496
2738,374	-5,44	-3,496
2749,035	-5,44	-3,494
2759,697	-5,42	-3,493
2770,34	-5,38	-3,49
2781,002	-5,2	-3,474
2791,657	-5,02	-3,455
2802,318	-4,34	-3,386
2812,968	-3,56	-3,28
2823,599	-2,66	-2,95
2834,249	-1,92	-2,617
2844,886	-1,48	-2,351
2855,517	-1,02	-1,925
2866,161	-0,36	-1,481
2876,798	0,24	-1,038
2887,448	0,4	-0,906
2898,109	0,46	-0,758
2908,752	2,36	-0,192
2919,396	2,36	-0,001
2930,063	2,36	-0,004
2940,695	2,34	-0,007
2951,332	2,28	-0,011
2961,981	2,04	-0,037
2972,619	0,84	-0,289
2983,274	0,54	-0,48
2993,936	0,18	-0,828
3004,591	0,2	-0,814
3015,234	0,14	-0,865
3025,884	0,36	-0,706
3036,545	0,34	-0,708
3047,188	0,36	-0,614
3057,838	0,54	-0,468
3068,493	0,44	-0,581
3079,143	0,56	-0,528
3089,804	0,44	-0,626
3100,471	0,56	-0,478
3111,109	1,04	-0,193
3121,758	1,44	-0,092
3132,42	2	-0,033
3143,063	2,18	-0,014
3153,724	2,24	-0,005
3164,38	2,26	-0,001
3175,017	2,24	-0,032
3185,673	2,04	-0,268
3196,172	2,24	-0,001

File: _4.txt
Time (s)	Load (N)	Displacement (mm)
0	-0,1	-0,031
10,87	-4,34	-1,45
21,762	-11,84	-2,991
32,595	-16,38	-3,474
43,67	-12,46	-2,584
54,391	-7,8	-1,901
65,125	-4,12	-1,259
75,972	0,36	-0,225
86,495	-1,96	-0,769
97,031	-3,08	-1,104
107,566	-5,88	-1,679
118,102	-9,28	-2,244
128,661	-10,66	-2,512
139,196	-13,22	-2,923
149,738	-15,26	-3,45
160,303	-15,2	-3,499
170,881	-15,14	-3,499
181,458	-15,08	-3,498
192,029	-15,06	-3,495
202,619	-14,98	-3,494
213,184	-14,8	-3,489
223,732	-13,84	-3,436
234,285	-10,62	-3,192
244,844	-8,1	-2,773
255,434	-7	-2,506
266,017	-6	-2,331
276,601	-5,36	-2,158
287,154	-3,9	-1,882
297,743	-3,92	-1,956
308,321	-3,64	-1,851
318,91	-3,66	-1,86
329,487	-3,94	-1,92
340,071	-4,38	-2,037
350,654	-4	-2,001
361,226	-2,78	-1,69
371,785	-1,64	-1,288
382,363	-1,46	-1,253
392,928	-0,82	-1,148
403,505	-0,52	-1,102
414,083	-1,32	-1,23
424,66	-1,54	-1,302
435,243	-2,4	-1,572
445,839	-3,74	-1,925
456,41	-3,12	-1,946
466,994	-4,62	-2,141
477,583	-5,32	-2,363
488,136	-5,46	-2,303
498,714	-5,64	-2,422
509,291	-6,34	-2,536
519,869	-6,42	-2,586
530,428	-5	-2,386
540,993	-4,46	-2,108
551,565	-2,52	-1,704
562,154	-1,34	-1,314
572,72	-0,04	-1,017
583,297	0,52	-0,938
593,862	1,22	-0,795
604,41	1,4	-0,748
614,987	1,52	-0,654
625,589	3	-0,355
636,154	3,36	-0,001
646,737	3,4	-0,002
657,297	3,4	-0,008
667,886	3,34	-0,02
678,452	3,12	-0,038
689,029	3,04	-0,057
699,6	2,68	-0,105
710,166	1,44	-0,299
720,731	0,18	-0,51
731,297	0,76	-0,532
741,874	0,48	-0,493
752,427	-0,02	-0,619
763,017	-0,82	-0,996
773,594	-2,56	-1,462
784,16	-4,88	-1,919
794,719	-6,52	-2,198
805,296	-7,92	-2,498
815,88	-9,12	-2,632
826,439	-13,1	-3,267
836,999	-13,14	-3,499
847,57	-13,14	-3,499
858,141	-13,14	-3,498
868,713	-13,1	-3,499
879,29	-13,06	-3,499
889,867	-13,02	-3,5
900,445	-13	-3,284
911,016	-11,68	-3,022
921,588	-9,8	-2,799
932,153	-9,98	-2,763
942,719	-11,02	-2,943
953,296	-12,04	-3,086
963,867	-12,8	-3,42
974,439	-12,84	-3,495
985,034	-12,48	-3,475
995,587	-10,3	-3,346
1006,147	-6,64	-2,802
1016,7	-4,56	-2,477
1027,278	-4,26	-2,241
1037,843	-3,08	-1,932
1048,432	-1,24	-1,499
1058,986	1,06	-0,807
1069,545	3,06	-0,373
1080,111	3,58	0
1090,706	3,58	-0,001
1101,259	3,64	-0,002
1111,835	3,64	-0,008
1122,402	3,52	-0,027
1132,98	2,78	-0,099
1143,545	1,46	-0,346
1154,098	0,5	-0,65
1164,838	2,54	-0,144
1176,009	0,46	-0,957
1186,569	0,92	-0,826
1197,272	-1,14	-1,452
1208,179	-6,68	-2,988
1218,763	-6,1	-2,858
1229,328	-5,76	-2,807
1239,881	-4,96	-2,635
1250,447	-5,32	-2,626
1261,036	-4,7	-2,586
1271,596	-3,18	-2,157
1282,161	-1,66	-1,742
1292,732	-1,68	-1,698
1303,298	-1,94	-1,723
1313,887	-1,94	-1,83
1324,441	-2,12	-1,84
1334,994	-1,2	-1,562
1345,559	-1,86	-1,728
1356,137	-2,28	-1,984
1366,708	-2,64	-2,068
1377,28	-4,28	-2,524
1387,857	-5,92	-2,972
1398,428	-7,5	-3,315
1409,006	-8,14	-3,43
1419,571	-9,52	-3,478
1430,149	-9,62	-3,496
1440,714	-9,54	-3,498
1451,273	-9,44	-3,499
1461,857	-9,28	-3,31
1472,41	-8,2	-3,071
1482,976	-7,18	-2,929
1493,553	-5,24	-2,543
1504,106	-4,24	-2,39
1514,666	-3,94	-2,345
1525,249	-2,36	-1,984
1535,791	-1,62	-1,779
1546,368	-0,46	-1,394
1556,933	0,02	-1,181
1567,499	0,4	-0,984
1578,082	0,68	-0,835
1588,636	0,92	-0,751
1599,201	1,12	-0,55
1609,784	1,94	-0,27
1620,356	2,72	-0,09
1630,933	3,44	-0,022
1641,517	3,54	-0,009
1652,082	3,54	-0,004
1662,659	3,52	-0,001
1673,231	3,5	-0,16
1683,802	2,12	-0,638
1694,385	0	-1,202
1704,951	-0,56	-1,437
1715,522	-1,68	-1,918
1726,088	-2,7	-2,387
1736,653	-3,5	-2,616
1747,23	-3,78	-2,793
1757,802	-4,86	-3,063
1768,355	-5,94	-3,338
1779,137	-7,82	-3,498
1790,08	-1,06	-1,705
1800,849	1,98	-0,273
1811,427	2,56	-0,104
1821,992	3,22	-0,033
1832,552	3,44	-0,015
1843,111	3,46	-0,012
1853,676	3,44	-0,009
1864,248	3,46	-0,004
1874,813	3,46	-0,002
1885,379	3,44	-0,042
1895,95	3,42	0
1906,509	3,42	-0,001
1917,093	3,42	0
1927,67	3,4	-0,012
1938,26	3,08	-0,317
1948,825	3,32	-0,28
1959,402	2,88	-0,457
1969,992	1,9	-0,685
1980,551	0,88	-0,916
1991,117	1,2	-0,821
2001,694	2,1	-0,611
2012,247	3,36	-0,176
2022,807	3,38	-0,001
2033,378	3,38	0
2043,944	3,36	-0,006
2054,515	3,34	-0,006
2065,092	3,34	0
2075,64	3,36	-0,001
2086,217	3,36	-0,001
2096,777	3,36	-0,003
2107,558	2,86	-0,478
2118,225	0,22	-1,249
2129,187	-5,34	-3,371
2139,872	-6,78	-3,48
2150,419	-6,52	-3,472
2160,997	-6,26	-3,444
2171,568	-6,12	-3,437
2182,116	-5,62	-3,404
2192,687	-6,4	-3,457
2203,252	-6,46	-3,467
2213,812	-6,28	-3,45
2224,383	-6,22	-3,44
2234,955	-5,36	-3,379
2245,526	-4,48	-3,286
2256,085	-3,86	-3,108
2266,645	-4,26	-3,216
2277,222	-5,06	-3,342
2287,764	-4,68	-3,289
2298,317	-4,88	-3,353
2308,888	-5,28	-3,383
2319,448	-4	-3,152
2330,013	-2,58	-2,78
2340,591	-2,1	-2,542
2351,156	-1,72	-2,255
2361,733	-1,3	-2,097
2372,281	-0,86	-1,722
2382,858	-0,68	-1,573
2393,424	-0,04	-1,202
2404,001	0,54	-0,928
2414,596	1,36	-0,706
2425,168	2,7	-0,442
2435,751	3,04	-0,154
2446,317	3,06	0
2456,87	3,06	-0,001
2467,429	3,04	-0,003
2477,977	3,04	-0,006
2488,74	3,02	0
2499,576	0,38	-1,043
2510,153	1,14	-0,783
2520,706	2,58	-0,28
2531,266	2,98	0
2541,831	2,98	-0,001
2552,396	2,98	-0,001
2562,962	2,96	-0,003
2573,521	2,92	-0,01
2584,075	2,92	-0,009
2594,628	2,92	-0,009
2605,187	2,92	-0,006
2615,747	2,9	-0,009
2626,3	2,92	-0,005
2636,866	2,92	-0,003
2647,437	2,9	-0,001
2657,996	2,88	-0,003
2668,544	2,52	-0,338
2679,103	1,66	-0,633
2689,675	0,48	-0,909
2700,246	0,12	-1,115
2710,841	-0,64	-1,696
2721,395	-1,06	-1,998
2731,948	-1,18	-2,151
2742,508	-1,52	-2,398
2753,073	-2,04	-2,611
2763,638	-2,24	-2,818
2774,216	-3,14	-3,15
2784,781	-3,86	-3,338
2795,353	-4,3	-3,374
2805,924	-4,7	-3,428
2816,489	-5,46	-3,483
2827,055	-5,5	-3,493
2837,62	-5,54	-3,497
2848,168	-5,52	-3,498
2858,739	-5,5	-3,5
2869,298	-5,5	-3,208
2879,9	-2,88	-2,595
2890,453	-1,86	-2,278
2901,025	-1,16	-1,992
2911,584	-0,84	-1,815
2922,161	-0,2	-1,402
2932,715	0,1	-1,053
2943,274	0,38	-0,801
2953,84	1,08	-0,322
2964,411	1,78	-0,098
2974,982	2,5	-0,026
2985,566	2,62	-0,007
2996,125	2,66	-0,002
3006,679	2,64	-0,001
3017,232	2,64	-0,053
3027,803	2,22	-0,392
3038,387	0,72	-0,846
3048,952	-0,22	-1,355
3059,517	-0,68	-1,798
3070,095	-1,22	-2,247
3080,642	-1,6	-2,54
3091,208	-2,24	-2,96
3101,797	-2,9	-3,16
3112,357	-3,54	-3,318
3122,91	-4,54	-3,421
3133,757	-5,32	-3,456
3144,323	-4,48	-3,024
3154,912	-2,22	-2,478
3165,471	-1,14	-2,012
3170,397	2,56	0