Folder: Data-filter--cyclical-tests-BEPE-project-/ensaios_Ciclicos/_30perc/_1gap/entrada

Note: README.md
# Data filter (cyclical tests BEPE project)
python aplication to treat data get by fatigue testing machine

File: _1.txt
Time (s)	Load (N)	Displacement (mm)
0	1	-0,035
7,924	-4	-0,803
16,108	-19,5	-2,581
24,165	-26	-3,48
31,995	0	-0,83
40,034	3,5	-0,043
91,409	-4	-1,422
98,837	-10,5	-2,011
106,415	-8	-2,175
113,848	-2,5	-1,185
121,534	-20,5	-3,423
128,901	3	-0,132
136,377	-20,5	-3,398
144,254	3	-0,438
151,586	-22,5	-3,5
158,899	4,5	-0,003
166,147	-21	-3,459
173,527	3,5	-0,124
181,434	-17	-2,819
188,754	4,5	0
195,995	-21,5	-3,488
203,213	2,5	-0,241
210,395	-6,5	-2,076
217,408	-21,5	-3,412
224,518	4,5	-0,033
231,609	-6,5	-2,187
238,935	-5	-1,779
246,099	3	-0,493
253,232	-21	-3,488
260,408	1	-0,549
267,505	-2,5	-1,317
274,627	-20,5	-3,499
281,556	0	-0,941
289,14	-15	-3,178
335,193	4,5	-0,002
342,165	-9	-2,575
349,226	-18	-2,979
356,162	2,5	-0,28
362,972	4,5	-0,037
408,714	-19,5	-3,27
415,583	0	-0,821
422,356	4,5	-0,003
429,196	-3	-1,779
435,976	-17	-3,412
442,785	-15,5	-2,89
487,381	-18,5	-3,166
494,634	4,5	-0,003
501,402	-1,5	-1,294
508,109	-11	-3,11
514,871	-18,5	-3,494
596,166	2,5	-0,247
602,844	4,5	-0,002
609,582	-2,5	-1,508
616,295	-13,5	-3,256
622,961	-18,5	-3,498
630,131	4	-0,113
711,27	-1	-1,188
717,936	-7,5	-2,619
724,637	-18	-3,49
731,393	-10	-2,55
738,112	0,5	-0,845
744,778	5	-0,015
751,408	4,5	-0,054
758,091	-3	-1,794
764,793	-13	-3,28
771,465	-18	-3,498
778,22	-4,5	-1,97
858,939	-5	-2,043
865,629	1,5	-0,598
872,361	5	-0,007
879,038	4,5	-0,256
885,8	-3,5	-2,062
892,501	-16,5	-3,455
899,227	-17,5	-3,248
905,929	-1,5	-1,539
912,588	3	-0,232
919,26	4,5	-0,002
926,387	-12,5	-3,247
1043,831	-15,5	-3,441
1050,442	-17	-3,495
1057,09	-16,5	-3,456
1063,726	-8	-2,47
1070,823	5	-0,009
1077,459	4,5	-0,06
1084,112	-1	-1,234
1090,724	-5	-2,33
1097,408	-15,5	-3,441
1104,055	-17	-3,498
1110,691	-14,5	-2,991
1301,27	-6	-2,68
1307,876	-13,5	-3,415
1314,511	-16	-3,499
1321,171	-8,5	-2,514
1327,801	-1	-1,555
1334,46	2	-0,504
1341,108	5	-0,009
1347,762	4	-0,395
1354,385	-1	-1,362
1361,021	-5	-2,442
1367,662	-14,5	-3,418
1374,304	-16	-3,496
1380,934	-15,5	-3,5
1387,587	-6	-2,336
1394,241	0	-1,119
1400,877	4	-0,128
1407,47	4,5	-0,015
1414,107	5	-0,001
1420,771	1	-0,796
1427,383	-1,5	-1,505
1434,031	-5	-2,521
1440,618	-11,5	-3,279
1447,248	-16	-3,492
1453,848	-15,5	-3,196
1460,489	-2	-1,692
1467,077	1,5	-0,683
1473,7	4,5	-0,023
1480,33	4,5	0
1486,953	-0,5	-1,194
1493,536	-3	-2,095
1500,153	-10,5	-3,215
1506,752	-15,5	-3,489
1513,352	-15	-3,306
1519,916	-5	-2,247
1526,515	0	-1,139
1533,133	4	-0,083
1539,756	5	-0,003
1546,356	2,5	-0,557
1552,92	-1	-1,472
1559,525	-5,5	-2,609
1566,119	-14,5	-3,44
1572,677	-15	-3,497
1579,246	-15	-3,2
1585,828	-2,5	-1,92
1592,433	1,5	-0,746
1599,021	4,5	-0,034
1605,625	4,5	-0,001
1612,232	0	-1,065
1618,802	-3,5	-2,106
1625,402	-11,5	-3,248
1631,989	-15	-3,489
1638,577	-15	-3,5
1645,177	-6,5	-2,403
1651,782	0	-1,342
1658,43	4	-0,088
1665,047	5	-0,002
1671,659	0,5	-0,755
1678,271	-2,5	-1,888
1684,864	-10	-3,114
1691,44	-15,5	-3,477
1698,027	-15,5	-3,499
1704,633	-8,5	-2,634
1711,293	0	-1,12
1717,898	4,5	-0,074
1724,462	4,5	-0,003
1731,038	3	-0,542
1737,571	-0,5	-1,351
1744,141	-4,5	-2,494
1750,692	-12	-3,392
1757,25	-15	-3,496
1763,838	-12,5	-2,95
1770,396	-3	-2,016
1776,959	0	-1,093
1783,511	2	-0,25
1790,146	5	-0,006
1796,686	4,5	-0,092
1803,256	-0,5	-1,17
1809,837	-3	-2,197
1816,383	-8,5	-3,086
1822,928	-15	-3,476
1829,474	-15	-3,472
1836,044	-5	-2,238
1842,691	1,5	-0,556
1921,965	-15	-3,495
1928,558	-11	-2,834
1935,164	-0,5	-1,544
1941,734	1,5	-0,608
1948,304	4,5	-0,038
1954,897	4,5	-0,001
1961,484	3	-0,505
1968,054	-0,5	-1,415
1974,624	-4,5	-2,498
1981,181	-12,5	-3,376
1987,763	-15	-3,495
1994,333	-15	-3,461
2000,878	-6	-2,5
2007,436	-1	-1,624
2014,017	1,5	-0,633
2020,635	4,5	-0,017
2027,211	4,5	-0,001
2215,426	-11,5	-2,955
2222,014	-2,5	-1,94
2228,571	0	-1,155
2235,141	3	-0,22
2241,692	5	-0,008
2248,298	4,5	-0,072
2254,88	0	-0,962
2261,449	-1,5	-1,828
2268,013	-5,5	-2,819
2274,588	-14	-3,461
2281,164	-15	-3,498
2360,39	-0,5	-1,558
2366,923	1,5	-0,724
2373,481	3,5	-0,122
2380,026	5	-0,009
2386,59	5	0
2393,13	0,5	-0,852
2399,675	-1	-1,667
2406,245	-4,5	-2,602
2412,785	-11	-3,361
2419,342	-14,5	-3,491
2425,894	-14,5	-3,499
2432,445	-12	-2,858
2438,979	-4	-2,166
2445,549	0	-1,304
2452,124	2	-0,318
2458,682	5	-0,021
2465,228	5	-0,001
2471,761	4,5	-0,331
2478,343	-0,5	-1,286
2484,883	-2,5	-2,166
2491,434	-6,5	-2,889
2498,004	-13,5	-3,466
2504,579	-14,5	-3,499
2511,125	-10	-2,929
2517,671	-3	-2,14
2524,204	0	-1,338
2530,75	2	-0,405
2537,338	5	-0,017
2543,871	5	-0,002
2550,447	2,5	-0,54
2557,028	-0,5	-1,487
2563,574	-3	-2,32
2570,12	-8	-3,134
2649,285	-13,5	-3,498
2655,837	-11,5	-3,151
2662,388	-5	-2,494
2668,934	0	-1,557
2675,474	0,5	-1,134
2682,031	2,5	-0,37
2688,595	5	-0,013
2695,158	5	0
2701,71	0	-1,107
2708,25	-1,5	-1,999
2714,795	-7	-3,106
2721,329	-12,5	-3,467
2727,893	-13	-3,5
2734,438	-7	-2,554
2740,972	-1	-1,788
2747,536	1,5	-0,734
2754,075	4	-0,098
2760,609	5	-0,006
2767,184	5	-0,084
2773,73	0	-0,91
2780,3	-1	-1,839
2786,852	-4,5	-2,738
2829,731	-12	-3,499
2836,264	-10,5	-3,083
2842,816	-2,5	-2,125
2849,362	1	-1,13
2855,907	2	-0,43
2862,441	4,5	-0,02
2869,022	4,5	-0,001
2875,568	3	-0,552
2882,108	0	-1,177
2888,689	-1,5	-2,077
2895,283	-5,5	-2,974
2901,817	-9	-3,417
2908,374	-11	-3,494
2914,932	-11	-3,499
2921,525	-5,5	-2,68
2928,089	-0,5	-1,919
2934,647	0,5	-1,25
2941,222	2,5	-0,37
2947,762	4,5	-0,053
2954,308	5	-0,006
2960,889	5	-0,022
2967,459	0,5	-0,925
2973,999	-0,5	-1,63
2980,544	-2	-2,302
2987,078	-5	-3,02
2993,624	-8,5	-3,434
3000,169	-9	-3,49
3006,721	-9	-3,498
3013,296	-8,5	-3,226
3019,842	-2,5	-2,513
3026,405	0	-1,65
3032,939	1,5	-0,868
3039,473	3	-0,279
3118,968	4,5	-0,107
3125,526	0	-0,896
3132,072	0	-1,776
3138,611	-1,5	-2,501
3145,157	-5,5	-3,322
3151,696	-7,5	-3,483
3158,23	-7,5	-3,496
3164,776	-8	-3,499
3171,369	-3	-2,748
3177,915	0	-2,017
3184,478	1,5	-1,213
3191,066	2,5	-0,364
3191,474	5	-0,001

File: _3.txt
Time (s)	Load (N)	Displacement (mm)
0	0,5	-0,04
4,241	2	-0,001
8,543	3	-0,002
12,929	3	0
17,254	3	-0,064
21,64	3,5	-0,266
25,881	3,5	-0,064
30,603	-7,5	-1,844
34,78	-3,5	-1,193
38,88	3,5	-0,014
42,969	3,5	-0,012
88,998	-11,5	-2,599
93,474	-17	-3,291
97,529	-5,5	-1,845
101,639	0	-0,778
105,881	3	-0,44
110,015	4	-0,001
114,173	4	-0,017
118,246	0,5	-0,535
122,218	-11	-2,281
126,19	-21	-3,499
130,204	-19,5	-3,438
134,128	-4,5	-1,756
137,98	4,5	-0,002
142,011	4	-0,097
146,031	-2,5	-1,279
149,894	-20,5	-3,476
153,842	-19,5	-3,444
158,162	-20	-3,457
162,17	-8	-2,382
166,153	-0,5	-0,84
169,946	4	-0,069
296,286	-5	-1,866
299,982	-18,5	-3,482
303,666	-1,5	-1,133
307,361	2,5	-0,11
311,123	-12	-2,606
314,849	-15	-3,375
318,533	3,5	-0,442
322,288	2	-0,382
326,02	-18,5	-3,263
329,866	-15	-3,35
411,161	-1	-1,128
414,792	1,5	-0,434
418,457	-17,5	-3,497
422,045	-3	-1,826
425,711	4,5	-0,023
429,286	-16	-3,038
432,892	-6,5	-2,486
436,468	4,5	-0,012
440,116	-9,5	-2,519
443,668	-8	-2,707
447,249	5	-0,004
488,749	-16,5	-3,453
492,361	4	-0,364
495,924	-1	-1,414
499,482	-16,5	-3,453
503,022	4,5	-0,132
506,574	-2,5	-1,689
510,15	-16	-3,434
514,223	-7,5	-2,67
517,799	4,5	-0,005
521,333	-11	-2,683
524,909	-7,5	-2,611
528,467	5	-0,01
532,036	-10,5	-2,656
535,6	-7	-2,63
539,158	5	-0,008
542,716	-10,5	-2,654
546,274	-7,5	-2,654
549,868	4,5	-0,004
553,407	-10	-2,625
556,989	-9	-2,777
560,967	-1,5	-1,354
639,04	-14,5	-2,968
642,562	-4,5	-2,151
646,072	4	-0,104
649,624	-16,5	-3,5
653,17	-2	-1,58
656,68	2	-0,523
660,237	-16,5	-3,498
663,771	-0,5	-1,032
667,329	1,5	-0,713
670,899	-16,5	-3,497
786,08	-3,5	-2,096
789,662	4,5	-0,031
793,219	-16	-3,305
796,777	-3	-1,958
800,347	4	-0,061
803,875	-15,5	-3,5
807,391	-2	-1,54
810,918	2	-0,393
814,41	-16	-3,496
817,944	0	-0,901
821,46	0	-1,145
936,119	-10	-3,193
939,641	4,5	-0,002
943,187	-6	-2,358
946,691	-6	-2,64
950,219	5	-0,013
953,752	-14,5	-3,109
957,268	-2,5	-1,839
960,754	2,5	-0,275
964,294	-15	-3,498
967,792	0,5	-0,895
971,751	5	-0,003
975,267	-9,5	-2,696
978,795	-4,5	-2,421
982,311	4,5	-0,046
985,797	-15	-3,499
989,301	-1	-1,324
992,823	1	-0,708
996,35	-15	-3,493
999,902	0	-0,776
1003,382	-0,5	-1,47
1006,927	-15	-3,453
1010,449	4,5	-0,148
1013,965	-2,5	-1,886
1017,481	-10,5	-3,24
1020,985	4,5	-0,004
1024,524	-9	-2,634
1028,022	-4	-2,34
1031,538	4,5	-0,038
1035,084	-15	-3,29
1038,605	-2,5	-1,818
1042,127	3	-0,205
1267,247	5	0
1270,768	-2,5	-1,895
1274,26	-9	-3,1
1277,758	5	-0,005
1281,256	-12	-2,923
1284,765	-3	-2,04
1288,257	3,5	-0,136
1291,749	-15	-3,498
1295,253	0	-1,193
1298,799	1,5	-0,574
1302,314	-15	-3,494
1305,836	2	-0,704
1309,346	0	-1,228
1312,868	-13,5	-3,45
1316,39	4,5	-0,014
1319,881	-3	-2,031
1323,373	-7	-2,933
1326,859	4,5	-0,012
1330,369	-15	-3,194
1333,855	-2	-1,773
1337,346	1,5	-0,451
1340,844	-15	-3,494
1344,324	4	-0,392
1347,858	-1	-1,588
1351,368	-12	-3,395
1354,901	5	-0,001
1358,423	-4	-2,108
1361,897	-5,5	-2,66
1365,389	4,5	-0,025
1368,869	-14,5	-3,5
1372,391	-1	-1,566
1375,864	1,5	-0,648
1452,714	-3,5	-2,102
1456,212	-7	-2,859
1459,674	4,5	-0,019
1463,195	-14,5	-3,383
1466,663	-0,5	-1,424
1470,155	1,5	-0,727
1473,641	-14,5	-3,485
1477,121	4,5	-0,216
1480,594	-3	-2,079
1484,086	-6	-2,874
1487,578	5	-0,013
1491,046	-14,5	-3,315
1494,537	-1,5	-1,72
1498,011	2	-0,542
1501,533	-14,5	-3,496
1505,037	1,5	-0,698
1508,535	0	-1,357
1512,045	-12,5	-3,434
1515,536	5	-0,001
1519,022	-6	-2,406
1522,532	-5	-2,621
1526,024	5	-0,017
1529,515	-14	-3,198
1532,989	-1,5	-1,682
1536,457	1,5	-0,534
1539,949	-14,5	-3,495
1543,441	2,5	-0,629
1546,897	-1	-1,648
1550,394	-10	-3,295
1553,862	4,5	-0,003
1557,366	-7,5	-2,658
1560,84	-3	-2,37
1564,386	5	-0,02
1567,889	-14	-3,232
1571,369	-1,5	-1,69
1574,867	2,5	-0,43
1578,365	-14,5	-3,495
1581,832	4	-0,446
1585,318	-1	-1,652
1588,786	-8,5	-3,063
1592,266	5	-0,009
1595,746	-12	-3,061
1599,232	-2	-1,825
1602,693	2	-0,464
1606,155	-14,5	-3,491
1609,635	4,5	-0,236
1613,133	-2,5	-1,955
1616,636	-8	-3,085
1620,11	4,5	-0,009
1623,59	-14	-3,299
1627,046	-1	-1,47
1630,532	1,5	-0,784
1634,005	-14	-3,476
1637,485	4,5	-0,031
1640,935	-5,5	-2,37
1644,433	-5,5	-2,704
1647,889	4,5	-0,029
1651,38	-14	-3,434
1654,848	-0,5	-1,438
1658,34	1,5	-0,754
1661,82	-14	-3,481
1665,306	4,5	-0,07
1668,768	-4,5	-2,252
1672,223	-4	-2,49
1675,703	4,5	-0,06
1679,171	-14	-3,499
1682,621	0,5	-0,788
1686,088	-0,5	-1,502
1689,55	-9	-3,224
1693,006	4,5	-0,01
1696,474	-14	-3,284
1699,93	-0,5	-1,504
1703,38	1	-0,952
1706,841	-13,5	-3,455
1710,285	4,5	-0,002
1713,759	-10,5	-2,886
1717,227	-2	-1,978
1720,676	1,5	-0,509
1724,132	-14	-3,492
1727,606	4,5	-0,096
1731,068	-4,5	-2,218
1734,53	-4	-2,576
1737,98	3,5	-0,149
1741,484	-14	-3,498
1926,861	4,5	-0,136
1930,323	-3,5	-2,192
1933,779	-4,5	-2,592
1937,24	4,5	-0,048
1940,768	-14	-3,472
1944,218	-0,5	-1,346
1947,715	1	-0,795
1951,172	-13,5	-3,469
1954,669	4,5	0
1958,137	-4,5	-2,388
1961,593	-3	-2,348
1965,067	4	-0,113
1968,516	-14	-3,497
1971,966	2,5	-0,613
1975,428	-1	-1,739
1978,896	-8	-3,087
1982,364	4,5	-0,013
1985,855	-13,5	-3,247
1989,341	-1	-1,643
1992,797	1,5	-0,729
1996,259	-13,5	-3,478
2181,39	3	-0,302
2184,858	-13,5	-3,494
2188,35	3	-0,502
2191,8	-1	-1,757
2195,255	-6,5	-3,054
2198,753	5	-0,007
2202,209	-13	-3,15
2205,677	-1	-1,728
2209,157	2	-0,493
2212,624	-13,5	-3,491
2288,622	5	0
2292,072	-4,5	-2,34
2295,528	-3,5	-2,463
2298,983	4,5	-0,064
2302,493	-13,5	-3,499
2305,985	0	-1,153
2309,453	0,5	-1,134
2312,927	-11	-3,436
2316,394	4,5	-0,002
2319,838	-10,5	-2,973
2323,312	-1	-1,784
2326,762	1	-0,869
2330,212	-12	-3,45
2333,703	5	-0,001
2337,153	-6	-2,568
2340,651	-2,5	-2,292
2344,101	3,5	-0,147
2347,551	-13,5	-3,497
2351,013	3	-0,54
2354,469	-1	-1,737
2357,925	-7	-3,068
3195,464	4,5	-0,002
3198,92	-3	-2,663
3202,364	-1	-2,103
3205,814	3	-0,183
3209,264	-8	-3,497
3212,575	4,5	-0,001

File: _4.txt
Time (s)	Load (N)	Displacement (mm)
0	1,5	-0,034
12,172	-5,5	-1,11
24,765	-10	-1,805
37,629	-5	-1,298
49,832	-23,5	-3,497
62,371	-21	-3,43
74,599	0	-0,837
86,316	-18	-2,879
140,517	4,5	0
152,024	-20	-3,481
164,155	-3	-1,487
175,639	-15	-2,773
187,218	3	-0,562
198,605	-19,5	-3,496
209,861	1	-0,727
221,014	2,5	-0,6
232,407	-19,5	-3,498
243,513	0	-1,042
254,682	3	-0,486
265,867	-18	-3,442
276,961	-6	-2,024
288,084	5	-0,007
298,998	-1	-1,157
310,529	-12	-2,579
321,652	4,5	-0,041
332,632	3,5	-0,556
382,939	4	-0,1
393,558	4,5	-0,056
404,19	5	-0,009
414,659	4,5	-0,042
425,129	3	-0,189
435,634	1,5	-0,654
446,193	1,5	-0,623
456,669	0	-1,099
467,27	0	-1,019
478,232	5	-0,01
488,635	3	-0,218
499,044	1	-0,766
509,43	-1,5	-1,569
520,289	3,5	-0,188
530,68	0	-1,058
541,132	-1,5	-1,507
551,505	-9	-2,419
561,837	-16,5	-3,499
572,162	-16,5	-3,474
582,511	-9	-2,87
592,843	-3	-1,694
603,174	4	-0,487
613,476	5	-0,009
623,795	2	-0,523
634,187	-1,5	-1,589
644,473	-16	-3,36
654,843	-16	-3,484
665,223	-9	-2,867
675,59	-2,5	-1,744
685,963	5,5	0
696,271	4,5	-0,05
706,572	-1	-1,488
716,94	-11,5	-2,86
727,205	-16,5	-3,488
737,579	-10,5	-3,132
747,934	-2,5	-1,778
758,277	5	-0,001
768,567	3,5	-0,145
778,976	-0,5	-1,403
789,26	-11	-2,738
799,567	-15,5	-3,498
809,892	-14,5	-3,436
820,128	-3	-2,025
830,387	3,5	-0,48
841,151	-1	-1,342
851,392	5	-0,001
861,669	3,5	-0,148
871,917	-0,5	-1,468
882,116	-15	-3,189
892,4	-15	-3,492
902,671	-9,5	-3,059
913,392	-15	-3,468
923,676	-6	-2,612
933,911	-0,5	-1,157
944,207	5	-0,001
954,484	4	-0,072
964,701	-0,5	-1,523
974,991	-11,5	-2,85
985,305	-15	-3,498
995,702	-15	-3,48
1005,913	-4,5	-2,397
1016,155	2	-0,734
1026,342	5,5	-0,02
1036,565	1	-0,944
1046,873	-5	-2,228
1057,132	-15	-3,499
1067,41	-13,5	-3,423
1077,687	-2	-1,84
1087,917	5	-0,015
1098,218	4,5	-0,059
1108,459	-0,5	-1,479
1118,677	-15	-3,479
1128,906	-13,5	-3,424
1139,088	-1	-1,468
1149,347	5	-0,001
1159,588	3,5	-0,215
1169,836	-2	-1,839
1180,071	-15	-3,499
1190,277	-9	-3,073
1200,536	-0,5	-1,298
1210,79	5,5	-0,004
1220,995	1	-0,936
1231,2	-13	-2,944
1241,412	-15	-3,481
1251,653	-3,5	-2,384
1261,937	0	-1,048
1272,166	5,5	-0,004
1282,329	1	-0,84
1292,577	-7	-2,446
1302,776	-14,5	-3,494
1313,018	-8	-2,996
1323,235	-0,5	-1,299
1333,483	5	-0,002
1343,706	2	-0,434
1353,917	-5	-2,274
1364,099	-15	-3,494
1374,328	-6	-2,802
1384,546	0	-1,188
1394,757	5	-0,003
1404,981	1,5	-0,517
1415,15	-7	-2,448
1425,349	-14,5	-3,494
1435,513	-4,5	-2,423
1445,67	3,5	-0,478
1455,827	4,5	-0,041
1466,027	0	-1,399
1476,22	-14	-3,328
1486,384	-10,5	-3,357
1496,583	-1	-1,469
1506,771	5,5	-0,002
1516,988	2	-0,558
1527,151	-6	-2,513
1537,291	-14	-3,486
1547,496	-3	-2,215
1557,642	5	-0,032
1567,775	3	-0,26
1577,89	-7	-2,574
1588,021	-13,5	-3,456
1598,175	-1,5	-1,732
1608,363	5	-0,001
1618,496	1,5	-0,592
1628,588	-13,5	-3,166
1638,721	-12	-3,384
1648,878	-0,5	-1,348
1658,982	5	-0,011
1669,115	0	-1,38
1679,273	-14	-3,499
1689,382	-5,5	-2,714
1699,498	4,5	-0,315
1709,625	2,5	-0,362
1719,759	-10,5	-2,898
1729,856	-12	-3,404
1739,965	0	-1,017
1750,099	5	-0,023
1760,196	-2,5	-1,943
1770,366	-14	-3,498
1780,481	-5,5	-2,826
1790,59	3	-0,583
1800,688	3,5	-0,149
1810,851	-3,5	-2,147
1820,955	-13,5	-3,47
1831,058	-0,5	-1,439
1841,137	5	-0,015
1851,199	-3	-1,959
1861,32	-13,5	-3,496
1871,46	-3,5	-2,53
1881,575	5	-0,207
1891,691	2	-0,404
1901,782	-7,5	-2,714
1911,868	-12	-3,422
1921,941	-0,5	-1,286
1932,08	5	-0,012
1942,22	0	-1,472
1952,323	-13,5	-3,499
1962,409	-3,5	-2,482
1972,542	3,5	-0,502
1982,634	3	-0,198
1992,731	-6	-2,48
2002,804	-13,5	-3,473
2012,908	-1	-1,642
2023,041	5,5	-0,002
2033,126	0,5	-1,012
2043,218	-13	-3,197
2053,327	-10	-3,355
2063,455	0	-1,152
2073,606	5	-0,012
2083,716	-0,5	-1,594
2093,843	-13,5	-3,499
2103,982	-8,5	-3,208
2114,122	-0,5	-1,216
2124,255	5	-0,015
2134,317	-0,5	-1,627
2144,396	-13,5	-3,499
2154,482	-5,5	-2,835
2164,567	4,5	-0,339
2174,67	3	-0,293
2184,78	-5,5	-2,482
2194,913	-13	-3,469
2204,987	-0,5	-1,372
2215,096	5	-0,012
2225,175	-1,5	-1,74
2235,291	-13	-3,498
2245,413	-4	-2,617
2255,492	5	-0,018
2265,559	1,5	-0,614
2275,651	-11	-2,925
2285,736	-10	-3,356
2295,792	0	-1,001
2305,883	5	-0,018
2315,962	-1	-1,759
2326,036	-13	-3,496
2336,139	-2,5	-2,274
2346,243	5	-0,18
2356,376	3,5	-0,167
2366,443	-6	-2,524
2376,589	-13	-3,49
2386,675	-2	-2,138
2396,748	5	-0,001
2406,815	1	-0,889
2416,901	-13	-3,3
2427,004	-6	-3,039
2437,107	0,5	-0,782
2447,205	4,5	-0,046
2457,32	-2	-1,985
2467,406	-13,5	-3,494
2477,485	-2	-2,035
2487,553	5	-0,002
2497,644	1,5	-0,893
2507,765	-8	-2,836
2517,833	-10,5	-3,406
2527,9	0	-1,097
2537,974	4,5	-0,033
2548,029	-1,5	-1,941
2558,096	-13	-3,496
2568,158	-3	-2,387
2578,267	4,5	-0,286
2588,335	2	-0,545
2598,414	-7,5	-2,751
2608,476	-9	-3,279
2618,549	2,5	-0,634
2628,676	4,5	-0,083
2638,756	-4,5	-2,504
2648,853	-12	-3,468
2658,987	-0,5	-1,692
2669,036	5	-0,013
2679,11	-0,5	-1,765
2689,213	-12,5	-3,497
2699,299	-2	-2,257
2709,36	5	-0,001
2719,427	1	-1,011
2729,507	-12	-3,498
2739,562	-5	-2,933
2749,636	4	-0,506
2759,715	3	-0,245
2769,788	-7,5	-2,802
2779,874	-10,5	-3,421
2789,941	0	-1,019
2800,027	4,5	-0,036
2810,142	-1	-1,904
2820,222	-12	-3,496
2830,295	-2	-2,231
2840,404	5	-0,002
2850,568	3,5	-0,142
2860,641	-2,5	-2,234
2870,739	-11	-3,489
2880,842	-1,5	-1,981
2890,921	5	-0,004
2900,989	0,5	-1,313
2911,05	-9,5	-3,498
2921,136	-2	-2,372
2931,215	5	-0,001
2941,295	1,5	-1,123
2951,356	-9	-3,499
2961,502	-4	-2,925
2971,557	4,5	-0,386
2981,63	3	-0,4
2991,74	-3	-2,58
3001,819	-7,5	-3,435
3011,893	0	-1,269
3022,014	5	-0,008
3032,069	0,5	-1,616
3042,149	-7,5	-3,498
3052,234	-1,5	-2,451
3062,302	5	-0,001
3072,363	1,5	-1,162
3082,431	-7,5	-3,499
3092,498	-1	-2,272
3102,589	5	-0,001
3112,663	1,5	-0,96
3122,796	-7,5	-3,427
3132,858	-2,5	-2,802
3142,949	5	-0,226
3153,034	2	-0,609
3163,132	-7	-3,18
3172,581	4,5	-0,001

File: _5.txt
Time (s)	Load (N)	Displacement (mm)
88,493	-6	-1,946
90,707	-9	-2,326
92,771	-7	-2,072
94,901	-7,5	-2,18
97,055	-10	-2,465
99,065	-6	-2,01
101,237	-10,5	-2,518
103,348	-9,5	-2,482
105,533	-14	-2,908
107,65	-15	-3,046
109,75	-15	-3,186
111,946	-19	-3,383
113,968	-14,5	-3,052
115,948	-9,5	-2,392
118,018	-8,5	-2,357
120,255	-13,5	-2,943
122,415	-16	-3,205
124,575	-18,5	-3,367
126,765	-21	-3,476
128,763	-19	-3,423
411,575	-2	-1,49
413,441	4	-0,324
415,276	4,5	-0,011
417,16	2	-0,302
419,092	-0,5	-1,194
421,018	-6	-2,08
422,92	-16,5	-3,07
424,828	-18	-3,497
426,736	-16,5	-3,441
428,67	-9,5	-2,921
430,593	-4,5	-2,046
432,448	0,5	-0,806
434,302	4,5	-0,002
436,227	4	-0,035
438,123	1	-0,562
440,013	-3	-1,659
441,963	-9,5	-2,393
443,835	-17,5	-3,438
445,743	-17,5	-3,493
447,591	-11,5	-3,134
524,938	-0,5	-1,016
526,828	4,5	-0,001
528,706	4,5	-0,037
530,566	0,5	-0,922
532,456	-5	-1,95
534,808	0,5	-0,844
536,686	-4	-1,939
538,539	-17	-3,187
540,369	-17	-3,486
542,253	-10	-3,01
544,131	-2,5	-1,762
546,022	0,5	-0,706
547,881	4	-0,003
549,747	3,5	-0,124
551,589	-1	-1,371
553,449	-10	-2,55
555,278	-17,5	-3,498
557,156	-15,5	-3,437
559,022	-7	-2,494
560,894	-1,5	-1,343
600,462	4,5	-0,019
602,286	0	-0,966
604,146	-7	-2,299
605,976	-17	-3,499
607,836	-16	-3,456
609,683	-7	-2,548
611,525	-1	-1,333
613,391	4,5	-0,109
615,245	4,5	-0,017
617,129	1,5	-0,496
618,977	-3	-1,852
620,813	-16,5	-3,237
622,691	-17	-3,493
624,532	-10,5	-3,074
626,422	-4	-2,036
628,282	0	-0,846
630,172	4,5	-0,001
632,032	4	-0,046
633,91	0,5	-0,825
636,256	4,5	-0,032
638,11	0,5	-0,842
639,988	-4	-1,94
641,859	-15	-3,129
643,749	-17	-3,496
645,591	-12	-3,225
647,463	-4	-2,081
649,299	0,5	-0,734
651,141	4,5	-0,003
653,013	3,5	-0,114
654,873	-0,5	-1,223
656,727	-9,5	-2,558
658,58	-17	-3,498
660,441	-15	-3,419
662,3	-5,5	-2,367
664,166	-0,5	-1,107
666,002	4	-0,001
667,833	3,5	-0,1
669,692	-0,5	-1,208
671,534	-9,5	-2,637
673,406	-17	-3,499
749,799	-3,5	-1,876
751,635	-16,5	-3,332
753,471	-16	-3,483
755,319	-6,5	-2,696
757,173	-1,5	-1,391
759,033	4,5	-0,264
760,893	4,5	-0,018
762,723	0,5	-0,825
764,559	-6,5	-2,15
766,412	-16,5	-3,499
768,266	-15,5	-3,466
770,114	-5,5	-2,49
771,968	-0,5	-1,158
773,822	4,5	-0,001
775,67	4	-0,051
777,512	0	-1,134
779,354	-8,5	-2,44
781,267	-16	-3,498
783,115	-16	-3,476
785,017	-7	-2,738
786,871	-1,5	-1,456
788,707	4	-0,016
790,579	4	-0,023
792,457	1	-0,744
794,299	-5,5	-2,13
796,141	-16	-3,5
798,013	-15,5	-3,482
799,878	-6,5	-2,688
801,768	-1,5	-1,616
803,61	4	-0,304
805,512	4	-0,004
807,354	2,5	-0,264
809,196	-2	-1,608
811,068	-11	-2,764
812,934	-16	-3,498
814,77	-13	-3,37
816,666	-5	-2,351
818,507	0	-0,938
820,349	4,5	-0,002
822,197	3,5	-0,094
898,387	4,5	-0,004
900,247	3	-0,183
902,125	-0,5	-1,348
903,979	-9	-2,625
905,851	-15,5	-3,499
907,716	-15	-3,45
909,582	-5,5	-2,557
911,437	-0,5	-1,184
913,302	4,5	0
915,162	4	-0,038
917,004	0	-0,994
918,84	-7,5	-2,421
920,693	-15,5	-3,499
922,523	-15	-3,449
924,371	-5	-2,428
926,225	-0,5	-1,248
928,049	4,5	-0,001
929,909	4	-0,041
931,751	0	-1,015
933,593	-6,5	-2,316
935,417	-15,5	-3,499
937,265	-15	-3,46
939,1	-5	-2,472
940,943	0	-1,065
942,784	4,5	-0,001
944,626	3,5	-0,078
946,474	0	-1,097
948,334	-8	-2,37
950,158	-15,5	-3,499
952,018	-15	-3,438
953,908	-5	-2,496
955,749	0	-1,073
957,603	4,5	-0,001
959,415	3,5	-0,106
961,275	0	-1,236
963,129	-8,5	-2,503
964,959	-15,5	-3,498
966,819	-13,5	-3,389
968,649	-3	-2,047
970,491	2,5	-0,704
972,327	4,5	-0,005
974,204	3	-0,184
976,034	-1	-1,532
977,888	-11,5	-2,814
979,718	-15	-3,496
981,542	-11	-3,232
983,39	-2,5	-1,916
985,22	2,5	-0,54
987,056	4,5	-0,006
988,898	2	-0,423
990,734	-2	-1,744
992,575	-14	-3,072
994,417	-15,5	-3,492
996,271	-9,5	-3,198
998,125	-2,5	-1,836
1000,015	0,5	-0,727
1001,869	4,5	-0,003
1003,711	3	-0,189
1005,547	-1,5	-1,547
1007,365	-14	-3,052
1193,324	3,5	-0,127
1195,16	0	-1,339
1197,026	-7,5	-2,553
1198,868	-15	-3,499
1200,692	-13,5	-3,402
1202,515	-3	-2,187
1204,363	0	-0,98
1206,205	4,5	-0,002
1208,059	3,5	-0,108
1209,901	0	-1,23
1211,731	-8	-2,565
1213,555	-15	-3,498
1215,391	-12	-3,357
1217,251	-3,5	-2,213
1219,074	0	-0,918
1220,898	4,5	-0,003
1222,723	3	-0,212
1224,576	-0,5	-1,414
1226,418	-9	-2,727
1228,266	-15	-3,498
1230,12	-13,5	-3,405
1231,974	-3,5	-2,322
1233,816	0	-0,952
1235,664	4,5	-0,001
1237,527	4	-0,052
1239,371	0	-0,993
1241,237	-5	-2,178
1243,079	-15	-3,455
1244,903	-15	-3,471
1246,739	-5,5	-2,61
1248,575	-0,5	-1,285
1250,387	4,5	-0,001
1252,229	3,5	-0,065
1254,065	0	-1,199
1255,901	-8,5	-2,508
1257,76	-15	-3,499
1259,602	-14	-3,442
1261,432	-3,5	-2,33
1263,268	0	-1
1265,104	4,5	-0,001
1266,916	3,5	-0,118
1268,752	-0,5	-1,353
1270,594	-10,5	-2,724
1272,436	-15	-3,498
1274,265	-11,5	-3,353
1276,089	-2,5	-2,041
1277,925	1,5	-0,699
1279,761	4,5	-0,004
1281,573	1,5	-0,447
1283,397	-2,5	-1,868
1285,263	-14	-3,061
1287,135	-15	-3,495
1288,994	-11	-3,288
1290,842	-2,5	-2,028
1292,696	1	-0,702
1294,532	4,5	-0,004
1296,369	2,5	-0,251
1298,222	-1	-1,484
1300,052	-12,5	-2,807
1301,918	-15	-3,498
1303,742	-11	-3,317
1305,578	-2,5	-1,997
1307,413	2	-0,607
1309,243	4,5	-0,006
1311,079	2	-0,348
1312,933	-1,5	-1,658
1314,775	-13	-3,018
1316,617	-15	-3,492
1318,447	-7,5	-3,017
1320,283	-1	-1,616
1322,155	4	-0,39
1323,991	4,5	-0,011
1325,82	1,5	-0,675
1327,657	-4,5	-2,107
1329,492	-15	-3,5
1331,346	-15	-3,472
1333,182	-5,5	-2,643
1335,024	-0,5	-1,4
1336,854	4,5	0
1338,678	4	-0,046
3123,96	4,5	0
3125,795	4	-0,027
3127,607	1	-0,84
3129,431	-1,5	-2,114
3131,237	-10	-3,497
3133,043	-9,5	-3,454
3134,849	-2,5	-2,435
3136,661	0	-1,086
3138,479	4,5	-0,001
3140,297	4	-0,069
3142,109	0,5	-1,16
3143,92	-3,5	-2,499
3145,75	-10	-3,499
3147,562	-8,5	-3,405
3149,374	-1,5	-2,202
3151,192	0,5	-0,809
3152,998	4,5	-0,003
3154,81	3	-0,144
3155,146	4,5	-0,001