Folder: Data-filter--cyclical-tests-BEPE-project-/Cycling_tests/_30perc/_1gap/entrada

Note: README.md
# Data filter (cyclical tests BEPE project)
python aplication to treat data get by fatigue testing machine

File: _2.txt
Time (s)	Load (N)	Displacement (mm)
0	0,5	-0,029
3,907	0	-0,168
7,799	-15	-2,125
11,812	-26	-3,5
15,694	-19,5	-3,181
20,093	-23,5	-3,435
23,98	-6,5	-1,734
27,951	3,5	-0,108
31,719	-1	-0,65
35,625	-18	-2,628
39,405	-22	-3,443
43,292	-4,5	-1,395
90,258	3,5	-0,024
93,942	-17,5	-2,753
97,59	-11,5	-2,634
101,255	4	-0,002
104,939	-8	-1,799
108,653	-21,5	-3,483
112,879	-20	-3,445
116,524	2,5	-0,468
120,118	-3	-1,218
123,874	-21	-3,499
127,582	-5,5	-2,092
334,312	-6	-2,242
337,747	2,5	-0,246
341,151	-18	-3,482
344,613	4,5	-0,001
348,105	-10,5	-2,432
351,543	-5	-2,047
354,855	0	-0,995
358,694	-18	-3,395
362,204	-2,5	-1,507
365,684	0,5	-0,696
369,122	-17	-3,441
372,506	4,5	-0,006
414,773	-18	-3,492
418,151	4,5	-0,001
421,469	-17,5	-3,421
424,805	1,5	-0,707
428,147	-6,5	-2,202
431,518	-5	-2,071
434,83	0	-1,026
438,562	-17,5	-3,499
441,928	4	-0,333
445,257	-12,5	-2,736
448,563	-1,5	-1,142
489,751	-5,5	-2,26
493,075	0,5	-0,798
496,428	-13	-3,258
499,728	3,5	-0,118
502,998	-15	-3,419
506,274	4	-0,057
509,544	-17	-3,467
512,831	4,5	-0,018
516,149	-17	-3,496
519,419	4,5	-0,003
522,701	-17,5	-3,498
600,684	-16,5	-3,486
603,96	4,5	-0,154
607,242	-15	-3,038
610,47	4	-0,472
613,764	-13,5	-2,848
617,04	0,5	-0,812
620,321	-8,5	-2,407
623,573	-1	-1,18
626,861	-5	-2,064
630,125	-2	-1,541
633,377	-3,5	-1,899
636,658	-3	-1,827
714,762	-15	-3,419
718,056	4,5	-0,034
721,296	-16	-3,46
724,553	4,5	-0,038
727,817	-16	-3,473
731,099	4,5	-0,016
734,345	-16	-3,482
737,639	4,5	-0,009
740,914	-16,5	-3,495
744,196	4,5	-0,003
747,502	-16	-3,499
750,754	4,5	-0,001
754	-16	-3,499
757,27	4,5	-0,001
760,533	-16	-3,5
763,779	4,5	0
767,049	-16	-3,446
770,313	4,5	-0,229
773,559	-15,5	-3,242
776,81	4	-0,312
780,074	-15	-3,06
783,392	0	-0,81
823,806	2	-0,466
827,046	-10	-3,05
830,28	2,5	-0,336
833,513	-10,5	-3,119
836,795	3	-0,152
840,527	-15	-3,106
843,791	4	-0,445
847,042	-13	-2,935
850,276	3,5	-0,492
853,516	-13,5	-2,883
856,81	0,5	-0,738
860,068	-9,5	-2,623
863,307	0	-0,92
866,559	-8	-2,523
869,793	0	-0,936
873,021	-9	-2,618
876,255	0	-0,815
879,501	-9	-2,638
882,716	-0,5	-0,871
885,95	-9,5	-2,643
889,214	0	-0,996
892,508	-5	-2,183
895,76	-1,5	-1,405
899,042	-2,5	-1,857
902,731	-15	-3,466
905,965	4,5	-0,04
909,259	-15,5	-3,482
912,505	4,5	-0,023
915,733	-15	-3,472
918,96	4,5	-0,042
922,176	-14,5	-3,41
925,404	3,5	-0,106
928,686	-15	-3,434
931,914	4	-0,104
1008,817	-15	-3,497
1012,069	4,5	-0,002
1015,321	-15	-3,499
1018,555	4,5	-0,001
1021,783	-15	-3,499
1025,061	4,5	0
1028,31	-15	-3,5
1031,556	4,5	-0,052
1034,808	-15	-3,28
1038,042	4,5	-0,36
1041,293	-14,5	-3,113
1044,545	3	-0,518
1047,755	-14,5	-3,068
1050,983	3,5	-0,458
1054,241	-12	-2,86
1057,492	1,5	-0,726
1060,744	-9,5	-2,611
1064,02	-0,5	-1,208
1067,242	-6	-2,29
1070,476	-0,5	-1,18
1073,709	-5	-2,211
1076,961	-1	-1,435
1080,165	-4,5	-2,17
1083,393	-0,5	-1,254
1086,615	-6	-2,265
1089,909	-1,5	-1,547
1093,178	-2,5	-1,786
1096,418	-2	-1,784
1099,64	-2,5	-1,794
1102,868	-1,5	-1,609
1106,09	-3	-1,979
1109,311	-1	-1,431
1112,515	-5	-2,185
1115,743	-0,5	-1,342
1118,968	-5	-2,206
1122,223	-1,5	-1,448
1125,456	-4	-2,048
1128,672	-1	-1,401
1131,912	-3,5	-2,003
1135,11	-1	-1,321
1138,326	-4,5	-2,154
1141,56	-1	-1,363
1144,775	-4,5	-2,144
1148,075	-2,5	-1,927
1151,291	-2	-1,692
1154,573	-3	-2,061
1305,248	4,5	0
1308,476	-15	-3,499
1311,704	4,5	-0,001
1314,968	-14,5	-3,499
1318,201	4,5	-0,001
1321,435	-15	-3,499
1324,639	4,5	-0,001
1327,867	-15	-3,499
1331,101	4,5	-0,001
1334,341	-15	-3,499
1337,569	4,5	-0,001
1340,82	-15	-3,499
1344,06	4,5	0
1347,306	-15	-3,5
1350,528	4,5	-0,001
1353,761	-15	-3,499
1356,971	4,5	-0,001
1360,223	-14,5	-3,499
1363,427	4,5	-0,002
1366,655	-15	-3,498
1369,877	4,5	-0,002
1373,11	-15	-3,498
1376,326	4,5	-0,004
1379,536	-14,5	-3,492
1382,818	4,5	-0,005
1386,04	-15	-3,492
1389,28	4,5	-0,008
1392,531	-14,5	-3,492
1395,783	4,5	-0,007
1398,999	-14,5	-3,493
1402,275	4,5	-0,005
1405,545	-14,5	-3,498
1408,748	4,5	-0,003
1411,976	-15	-3,496
1415,24	4,5	-0,004
1418,462	-15	-3,496
1421,708	4,5	-0,004
1424,931	-15	-3,495
1428,169	4,5	-0,006
1431,397	-15	-3,493
1434,655	4,5	-0,006
1437,913	-15	-3,494
1441,135	4,5	-0,01
1444,344	-14,5	-3,479
1447,572	4,5	-0,02
1450,788	-14	-3,462
1454,022	4,5	-0,042
1457,262	-14	-3,451
1460,471	4	-0,084
1463,694	-11	-3,362
1466,915	2,5	-0,25
1470,113	-8	-3,08
1473,329	1,5	-0,604
1476,55	-6	-2,792
1479,772	1	-0,808
1482,97	-4	-2,392
1486,204	0	-1,184
1489,426	-3	-2,077
1492,648	-1	-1,533
1495,881	-2,5	-1,911
1499,109	-2	-1,754
1502,331	-1	-1,597
1505,541	-4,5	-2,227
1508,739	0	-1,075
1511,972	-6,5	-2,433
1515,194	0,5	-0,876
1518,398	-10,5	-2,889
1521,608	4	-0,366
1524,818	-14	-3,316
1528,033	4,5	0
1531,231	-14,5	-3,499
1534,459	4,5	-0,001
1537,693	-14,5	-3,498
1540,915	4,5	-0,003
1544,143	-14,5	-3,496
1547,334	4,5	-0,013
1550,538	-14,5	-3,479
1553,73	4	-0,061
1556,964	-12,5	-3,42
1560,174	3,5	-0,143
1563,389	-9,5	-3,243
1566,605	2	-0,404
1569,827	-7	-2,901
1573,025	1	-0,691
1576,235	-5	-2,528
1579,439	0	-1,152
1582,642	-3	-2,077
1585,852	-1	-1,535
1589,056	-1,5	-1,738
1592,278	-2,5	-1,927
1595,488	-0,5	-1,272
1598,728	-6	-2,377
1601,943	0,5	-0,818
1605,165	-10,5	-2,814
1608,375	3,5	-0,409
1611,963	-0,5	-1,43
1615,148	-1,5	-1,658
1618,358	-3	-2,082
1621,604	-0,5	-1,385
1624,79	-5,5	-2,432
1628	0,5	-0,839
1631,21	-10	-2,874
1634,413	4	-0,403
1637,623	-14	-3,299
1640,833	4,5	0
1644,037	-14	-3,499
1647,253	4,5	-0,002
1650,439	-14,5	-3,497
1653,63	4,5	-0,005
1656,822	-14,5	-3,484
1660,068	4,5	-0,018
1663,314	-14,5	-3,483
1666,518	4,5	-0,026
1669,745	-13,5	-3,46
1672,937	4	-0,067
1676,141	-10,5	-3,344
1679,345	2	-0,371
1682,549	-7	-2,874
1685,746	1	-0,873
1688,962	-4	-2,391
1692,166	0	-1,293
1695,352	-2	-1,761
1698,55	-2	-1,851
1701,748	-1	-1,386
1704,945	-5	-2,328
3232,98	-7	-3,493
3236,166	4,5	-0,016
3239,346	-6,5	-3,464
3240,696	4,5	0