Folder: Data-filter--cyclical-tests-BEPE-project-/Cycling_tests/_40perc/_4gap/entrada

Note: README.md
# Data filter (cyclical tests BEPE project)
python aplication to treat data get by fatigue testing machine

File: _3.txt
Time (s)	Load (N)	Displacement (mm)
36,273	-8	-1,857
45,939	-4,5	-1,06
55,562	-15,5	-3,041
65,216	1,5	-0,05
74,869	-21,5	-3,496
84,523	1,5	-0,181
94,206	-14	-2,488
103,872	-6	-1,798
113,549	-3	-0,943
123,208	-17	-3,314
132,862	2	-0,024
142,533	-20,5	-3,498
188,479	-12	-2,797
198,174	1,5	-0,064
207,857	-20	-3,497
217,517	1,5	-0,527
227,176	-11	-2,203
236,848	-6,5	-2,113
246,543	-0,5	-0,513
256,233	-19	-3,47
265,94	2	-0,001
275,594	-16	-2,884
285,259	-5	-1,636
294,96	-2	-0,809
304,65	-17,5	-3,43
314,327	2	-0,002
324,029	-15	-2,73
406,308	-1,5	-0,838
415,974	-17,5	-3,448
425,651	2,5	-0,003
435,328	-16	-3,01
445	-4	-1,604
454,665	-1	-0,819
464,343	-18	-3,462
474,002	2,5	-0,003
483,662	-18,5	-3,128
493,339	-3	-1,372
503,011	-2,5	-1,064
512,688	-15,5	-3,38
522,354	2,5	-0,004
532,001	-18	-3,307
541,654	-2,5	-1,218
623,802	-5	-2,005
633,461	-0,5	-0,598
643,121	-17	-3,465
652,792	2,5	-0,002
662,445	-17,5	-3,294
672,087	0	-0,817
681,749	-5,5	-1,716
691,4	-11	-3,052
701,059	2,5	-0,023
710,713	-17,5	-3,499
720,366	-2	-1,062
730,026	-3	-1,338
739,673	-10,5	-2,933
749,345	2,5	-0,04
758,992	-17,5	-3,497
768,645	1,5	-0,381
778,299	-9	-2,266
787,964	-6	-2,253
797,624	0	-0,322
807,277	-17	-3,491
816,931	2,5	-0,022
826,59	-10	-2,44
836,244	-5,5	-2,126
845,903	0	-0,374
855,562	-17	-3,486
865,216	2,5	-0,001
874,863	-11	-2,586
884,517	-4,5	-1,83
894,176	-1	-0,868
903,824	-13,5	-3,33
913,471	2,5	-0,014
923,137	-17	-3,5
932,784	0	-0,681
978,651	1,5	-0,142
988,299	-16,5	-3,488
997,952	2,5	-0,002
1007,612	-16	-3,185
1017,271	-2,5	-1,121
1026,925	-4	-1,58
1036,578	-8	-2,666
1046,226	0,5	-0,333
1055,879	-15	-3,47
1065,52	2,5	-0,007
1075,168	-16	-3,499
1084,821	0,5	-0,522
1094,481	-8	-2,238
1104,14	-4,5	-2,051
1113,782	-1,5	-0,939
1123,441	-12	-3,199
1133,077	1,5	-0,081
1142,73	-16,5	-3,494
1152,377	2,5	-0,001
1162,049	-15,5	-3,057
1171,696	-1,5	-1,117
1181,344	-6	-1,949
1190,991	-4,5	-2,04
1200,627	-1,5	-0,991
1210,28	-11,5	-3,212
1219,922	2	-0,034
1229,569	-16	-3,496
1239,217	2,5	-0,001
1248,864	-15	-3,095
1258,523	-1,5	-1,136
1268,165	-4,5	-1,721
1277,806	-6,5	-2,577
1287,466	0	-0,272
1297,113	-15	-3,446
1306,755	2,5	-0,019
1316,402	-16	-3,496
1326,056	2,5	-0,001
1335,697	-15,5	-3,202
1345,344	-0,5	-0,836
1355,004	-8	-2,27
1364,645	-3,5	-1,726
1374,293	-2	-1,204
1383,946	-11,5	-3,228
1393,594	2	-0,04
1403,229	-15,5	-3,493
1412,871	2,5	-0,002
1422,524	-15,5	-3,5
1432,165	1,5	-0,473
1441,825	-9	-2,505
1451,472	-2,5	-1,467
1461,114	-4	-1,726
1470,755	-5,5	-2,328
1480,403	-0,5	-0,7
1490,038	-13	-3,336
1499,674	2	-0,058
1509,327	-15	-3,493
1518,981	3	-0,001
1528,628	-15	-3,382
1538,263	0,5	-0,571
1547,905	-9	-2,514
1557,558	-3	-1,514
1567,206	-3	-1,468
1576,853	-10,5	-3,116
1586,501	2,5	-0,049
1596,151	-15	-3,49
1605,79	3	-0,007
1615,437	-15	-3,499
1625,079	3	-0,001
1634,738	-15	-3,191
1644,379	-0,5	-0,928
1654,039	-4	-1,695
1663,674	-6	-2,521
1673,322	0	-0,504
1682,975	-14,5	-3,443
1692,617	2,5	-0,009
1702,276	-15	-3,498
1711,918	2,5	-0,185
1721,571	-14	-2,989
1731,212	0	-0,768
1740,866	-7,5	-2,304
1750,525	-3,5	-1,839
1760,173	-2,5	-1,398
1769,808	-6	-2,505
1779,462	0	-0,675
1789,097	-9,5	-3,093
1798,745	0	-0,287
1808,368	-12,5	-3,358
1818,009	1	-0,144
1827,657	-14,5	-3,441
1837,292	2	-0,039
1846,946	-15	-3,485
1856,587	2,5	-0,019
1866,235	-15	-3,491
1875,87	2,5	-0,013
1885,512	-15	-3,485
1895,159	3	-0,007
1904,794	-15	-3,494
1914,43	3	-0,002
1924,071	-15	-3,498
1933,719	2,5	-0,001
1943,354	-15	-3,499
1953,002	2,5	-0,003
1962,643	-15	-3,388
1972,279	2	-0,347
1981,914	-12	-2,904
1991,544	-0,5	-0,85
2001,18	-7,5	-2,389
2010,826	-2	-1,333
2020,474	-5,5	-2,169
2030,135	-3	-1,715
2039,775	-3,5	-1,71
2049,416	-3	-1,678
2059,058	-2,5	-1,56
2068,705	-4	-2,038
2078,359	-1,5	-1,226
2087,994	-4	-2,202
2097,641	-0,5	-0,891
2143,449	-3,5	-2,132
2153,084	-1,5	-1,387
2162,726	-4	-2,193
2172,361	-1	-1,006
2182,003	-6	-2,745
2191,644	0	-0,628
2201,298	-7,5	-2,921
2210,933	0	-0,374
2220,57	-7	-2,942
2230,21	0	-0,59
2239,857	-8	-3,052
2249,493	1	-0,189
2259,128	-9,5	-3,31
2268,764	1,5	-0,117
2278,405	-11	-3,413
2288,041	2,5	-0,02
2297,682	-13	-3,492
2307,317	2,5	-0,001
2316,971	-12,5	-3,146
2326,618	0	-0,672
2336,26	-7	-2,471
2345,913	-1,5	-1,499
2355,561	-2,5	-1,605
2365,208	-5	-2,463
2374,838	0	-0,565
2384,473	-12	-3,436
2394,115	2,5	-0,005
2403,738	-13,5	-3,499
2413,385	1	-0,561
2423,015	-6,5	-2,42
2432,656	-2	-1,703
2442,292	-2	-1,519
2451,927	-4	-2,25
2461,575	0	-0,854
2471,216	-11	-3,392
2480,852	2,5	-0,021
2490,511	-13	-3,496
2500,152	3	-0,001
2509,806	-12,5	-3,499
2519,447	1,5	-0,451
2529,083	-9,5	-2,893
2538,724	-0,5	-0,858
2548,366	-3,5	-1,961
2558,007	-3,5	-2,157
2567,649	0	-0,824
2577,29	-9	-3,238
2586,932	1	-0,186
2596,567	-11	-3,438
2606,214	2,5	-0,024
2615,856	-12	-3,488
2625,497	3	-0,003
2635,133	-12	-3,326
2644,786	0	-0,785
2654,428	-6	-2,544
2664,081	-1	-1,166
2673,723	-3	-1,851
2683,352	-3	-2,217
2692,994	-0,5	-0,916
2702,635	-5,5	-2,808
2712,276	0,5	-0,214
2721,906	-11,5	-3,475
2731,535	3	-0,002
2741,183	-11,5	-3,202
2750,818	0	-0,65
2760,46	-6	-2,494
2770,095	-1,5	-1,332
2779,73	-2,5	-1,774
2789,372	-3,5	-2,355
2799,019	1	-0,302
2808,649	-10,5	-3,457
2818,296	3	-0,005
2827,938	-10,5	-3,499
2837,579	2	-0,442
2847,233	-4	-2,359
2856,868	-1,5	-1,532
2866,498	-1,5	-1,753
2876,139	-2,5	-2,18
2885,786	0	-0,998
2895,428	-4,5	-2,932
2905,063	0,5	-0,294
2914,693	-6,5	-3,316
2924,328	1	-0,288
2933,964	-6	-3,302
2943,599	1	-0,236
2953,241	-6	-3,34
2962,888	2	-0,063
2972,517	-8,5	-3,473
2982,153	2,5	-0,011
2991,776	-8,5	-3,498
3001,424	2,5	-0,197
3011,059	-6	-2,898
3020,701	-0,5	-1,018
3030,342	-2	-2,045
3039,99	-2	-2,022
3049,637	0	-0,863
3059,273	-5	-3,081
3068,902	1,5	-0,146
3078,537	-8	-3,466
3088,191	3	-0,006
3097,826	-8,5	-3,499
3107,48	1,5	-0,541
3117,121	-3,5	-2,513
3126,769	-1	-1,396
3136,41	-1,5	-1,95
3146,04	-1,5	-1,789
3155,681	-0,5	-1,339
3165,328	-2,5	-2,617
3174,97	0	-0,862
3177,598	2,5	0