Folder: Data-filter--cyclical-tests-BEPE-project-/Cycling_tests/_50perc/_4gap/entrada

Note: README.md
# Data filter (cyclical tests BEPE project)
python aplication to treat data get by fatigue testing machine

File: _1.txt
Time (s)	Load (N)	Displacement (mm)
0	0	-0,026
8,626	-1,5	-0,905
17,116	-2,5	-1,101
25,611	-4	-1,373
34,113	-5	-1,639
42,614	-5,5	-1,797
51,128	-5,5	-1,842
60,013	-15	-3,445
68,677	-17	-3,498
77,184	-17	-3,498
85,722	-17	-3,5
94,259	-16,5	-3,13
103,109	-3	-1,178
111,85	3	-0,083
120,796	1	-0,826
129,693	-12	-3,162
138,711	-14	-2,911
147,369	-6,5	-1,86
155,912	-4	-1,476
164,466	-1,5	-1,018
172,993	0	-0,613
181,5	2	-0,298
190,057	4	-0,034
198,575	4	-0,01
207,341	0,5	-0,959
215,884	-1,5	-1,429
260,756	-15	-3,494
269,293	-15	-3,499
277,843	-15	-3,196
286,368	-13,5	-2,926
294,912	-9	-2,302
303,431	-6	-1,894
311,969	-3,5	-1,453
320,513	0	-0,935
329,044	1,5	-0,499
337,599	4	-0,093
346,143	4,5	-0,011
354,674	4,5	-0,002
363,212	4	-0,36
371,75	0	-1,066
380,305	-2	-1,777
388,86	-6	-2,43
397,398	-8,5	-2,801
405,954	-12	-3,317
414,485	-13,5	-3,42
423,012	-14,5	-3,458
431,536	-15	-3,477
476,354	-12	-2,902
484,957	-6,5	-2,131
493,506	-5	-1,875
502,056	-2	-1,333
510,6	0	-0,99
519,137	1,5	-0,518
527,687	4	-0,141
536,224	4,5	-0,044
544,75	5	-0,017
553,275	5	-0,003
561,801	5	0
570,326	5	-0,284
578,852	4,5	-0,485
587,383	1,5	-0,9
595,891	1	-1,148
604,428	-1	-1,598
612,948	-4,5	-2,251
621,473	-8	-2,776
630,005	-10,5	-3,23
638,53	-13	-3,441
647,062	-14,5	-3,491
655,593	-14,5	-3,498
664,125	-14,5	-3,499
672,65	-14	-3,336
681,164	-13	-2,98
689,695	-11,5	-2,889
698,227	-10,5	-2,724
706,764	-8	-2,363
715,29	-5,5	-2,078
723,797	-4,5	-1,853
804,835	1,5	-0,614
813,372	2	-0,534
821,904	3	-0,343
830,429	3,5	-0,228
838,955	4	-0,116
847,474	5	-0,045
855,994	5,5	-0,016
864,507	5,5	-0,009
873,039	5,5	-0,004
881,558	5,5	-0,002
890,084	5,5	-0,001
898,609	5,5	-0,001
907,141	5,5	-0,078
915,666	5,5	-0,037
924,18	5,5	-0,084
932,711	5	-0,391
941,219	5	-0,287
949,739	5	-0,415
958,258	2,5	-0,846
966,783	1	-1,098
975,303	0,5	-1,204
983,828	0,5	-1,212
992,354	0	-1,31
1000,88	-0,5	-1,477
1009,399	-1,5	-1,685
1017,913	-3,5	-2,091
1026,426	-5,5	-2,543
1034,952	-9	-3,077
1043,471	-11	-3,312
1051,997	-13	-3,46
1060,51	-13,5	-3,48
1069,018	-13,5	-3,492
1077,561	-13,5	-3,499
1086,075	-13,5	-3,389
1094,588	-11,5	-2,971
1103,108	-7,5	-2,461
1111,627	-5	-2,063
1120,141	-4,5	-1,908
1128,642	-2	-1,605
1137,144	-0,5	-1,196
1145,651	0,5	-0,884
1154,165	2	-0,5
1162,678	4,5	-0,116
1171,192	4,5	-0,068
1179,699	5	-0,04
1188,207	5,5	-0,022
1196,726	5,5	-0,012
1205,24	5,5	-0,008
1213,753	5,5	-0,003
1222,267	5,5	-0,001
1230,78	5	-0,341
1239,288	5	-0,485
1247,801	2	-0,948
1256,315	0	-1,284
1264,834	-0,5	-1,634
1273,342	-1	-1,753
1281,849	0	-1,528
1290,381	-2,5	-2,087
1298,906	-4	-2,361
1307,42	-4	-2,378
1315,927	-5	-2,607
1324,435	-7,5	-2,953
1332,943	-7,5	-3,047
1341,462	-10,5	-3,399
1349,982	-11	-3,428
1358,489	-11,5	-3,443
1366,991	-12	-3,47
1375,51	-12	-3,492
1384,018	-12	-3,495
1392,537	-12	-3,499
1401,045	-11,5	-3,5
1409,63	-10	-3,006
1418,27	-2,5	-1,875
1426,795	-1	-1,527
1435,315	0	-1,209
1443,828	0,5	-1,144
1452,33	0	-1,214
1460,843	-0,5	-1,505
1469,357	0	-1,296
1477,852	0	-1,455
1486,372	0,5	-1,114
1494,885	1	-1,093
1503,399	0	-1,49
1511,912	-1,5	-1,74
1520,414	-1,5	-1,834
1528,927	-0,5	-1,552
1537,435	0	-1,368
1545,948	1	-1,048
1554,456	1,5	-0,97
1562,957	3,5	-0,483
1571,465	4	-0,183
1579,984	4,5	-0,089
1588,498	5,5	-0,021
1597,005	5,5	-0,011
1605,519	5,5	-0,005
1614,032	5,5	-0,008
1622,54	5,5	-0,01
1631,065	5,5	-0,003
1856,653	-4,5	-2,887
1865,154	-4,5	-2,8
1873,662	-3,5	-2,677
1882,181	-4	-2,665
1890,701	-5	-3,02
1899,208	-5,5	-3,124
1907,716	-6	-3,249
1916,229	-5,5	-3,139
1924,743	-6	-3,3
1933,256	-7	-3,374
1941,77	-7,5	-3,399
1950,277	-8	-3,447
1958,779	-7,5	-3,398
1967,304	-7,5	-3,408
1975,806	-8	-3,454
1984,307	-8	-3,458
1992,809	-8,5	-3,484
2001,328	-8	-3,492
2009,908	-8	-3,499
2018,403	-8	-3,498
2026,905	-8	-3,498
2035,436	-8	-3,5
2043,938	-8	-3,384
2052,445	-7,5	-3,196
2060,959	-7,5	-3,098
2069,472	-7	-3,102
2077,986	-5,5	-2,966
2086,487	-5	-2,765
2095,007	-3	-2,404
2175,834	4	-0,111
2184,342	4,5	-0,048
2192,849	4,5	-0,014
2201,351	5	-0,004
2209,852	4,5	-0,001
2218,366	4	-0,498
2226,879	1,5	-0,936
2235,399	0	-1,537
2243,9	-1,5	-2,083
2252,414	-3	-2,532
2260,927	-4,5	-3,191
2269,441	-6,5	-3,448
2277,949	-7,5	-3,491
2286,468	-7,5	-3,499
2294,982	-7	-3,182
2303,489	-4	-2,657
2311,997	-1,5	-2,078
2320,504	0	-1,454
2329,024	1,5	-0,689
2337,531	3,5	-0,132
2346,045	4,5	-0,027
2354,552	4,5	-0,008
2435,338	-6,5	-3,426
2443,851	-5	-2,894
2452,359	-2	-2,33
2460,86	-0,5	-1,689
2469,374	0	-1,263
2477,887	1	-0,755
2486,395	1,5	-0,664
2494,926	2,5	-0,233
2503,434	4	-0,083
2511,953	4	-0,062
2520,461	4,5	-0,029
2528,968	4,5	-0,005
2609,856	-1,5	-2,352
2618,453	-4	-3,172
2626,955	-5	-3,401
2635,456	-6	-3,478
2643,97	-6	-3,495
2652,471	-6	-3,498
2660,985	-6	-3,5
2669,492	-6	-3,154
2678,006	-4,5	-2,907
2686,519	-3,5	-2,672
2695,015	-2,5	-2,442
2703,54	-1	-1,897
2712,054	0	-1,503
2720,561	0	-1,387
2729,063	1	-0,925
2737,576	1,5	-0,535
2746,09	3	-0,188
2754,609	3,5	-0,08
2763,117	4	-0,038
2771,624	4,5	-0,012
2780,132	4,5	-0,004
2788,657	4,5	-0,002
2797,165	4,5	-0,001
2805,672	4,5	-0,053
2814,18	4	-0,288
2822,699	2,5	-0,698
2831,201	1,5	-0,928
2839,714	0	-1,252
2848,228	0	-1,54
2856,729	0	-1,791
2865,243	-1	-2,101
2873,75	-1,5	-2,374
2882,252	-2	-2,661
2890,766	-2,5	-2,922
2899,273	-2,5	-2,813
2907,781	-3	-2,976
2916,282	-2,5	-2,842
2924,796	-3	-3,02
2933,303	-3	-3,098
2941,817	-4	-3,308
2950,33	-4	-3,267
2958,838	-4,5	-3,348
2967,339	-4,5	-3,406
2975,835	-5,5	-3,457
2984,348	-6	-3,478
2992,85	-5,5	-3,471
3001,357	-5,5	-3,476
3009,859	-5,5	-3,469
3018,372	-5,5	-3,465
3026,892	-5,5	-3,45
3035,399	-5	-3,418
3080,073	-6	-3,47
3088,58	-5,5	-3,468
3097,082	-5	-3,411
3105,607	-5	-3,438
3114,121	-5	-3,439
3122,628	-5	-3,406
3131,142	-5	-3,412
3139,649	-3,5	-3,256
3148,169	-3,5	-3,307
3156,682	-4	-3,353
3165,19	-4,5	-3,39
3173,008	4	-0,001

File: _5.txt
Time (s)	Load (N)	Displacement (mm)
0	0	-0,034
10,822	1	-0,388
21,556	1,5	-0,13
32,307	1,5	0
43,04	1,5	-0,001
53,78	1,5	-0,001
64,519	1,5	-0,002
75,259	2	-0,006
86,01	1,5	-0,015
96,749	0	-0,244
107,483	-3	-1,054
118,216	-5,5	-1,554
128,967	-6	-1,75
139,737	-7	-1,858
150,494	-6	-1,799
161,234	-7,5	-1,944
171,997	-5	-1,7
182,754	-6	-1,819
193,506	-7,5	-2,031
204,275	-7,5	-2,19
215,057	-10,5	-2,519
225,832	-14	-2,899
236,595	-13,5	-2,919
247,371	-13,5	-2,899
258,146	-13	-2,86
268,915	-14,5	-3,079
279,685	-15	-3,042
290,461	-15	-3,183
301,242	-14,5	-2,994
312,041	-15	-3,059
322,822	-15	-3,052
333,598	-14	-2,969
344,391	-11,5	-2,673
355,161	-12	-2,695
365,948	-10,5	-2,547
376,711	-10	-2,513
387,487	-8,5	-2,362
398,256	-8,5	-2,263
409,019	-8,5	-2,244
419,795	-7	-2,082
430,576	-6	-1,926
441,352	-5	-1,731
452,139	-3,5	-1,614
462,908	-4,5	-1,68
473,678	-4,5	-1,739
484,459	-4,5	-1,785
495,247	-4,5	-1,696
506,04	-4	-1,672
516,821	-4,5	-1,734
527,615	-3,5	-1,583
538,402	-4	-1,643
549,177	-5	-1,82
559,965	-5,5	-1,969
570,746	-7	-2,164
581,516	-5,5	-2,005
592,279	-6	-2,115
603,048	-6,5	-2,09
613,818	-5	-1,979
624,587	-5,5	-1,995
635,368	-5	-2,025
646,138	-6	-2,084
656,925	-5,5	-2,016
667,701	-5	-1,97
678,494	-5	-1,984
689,269	-4,5	-1,928
700,051	-4,5	-1,911
710,838	-4,5	-1,906
721,608	-4,5	-1,934
732,401	-3,5	-1,734
743,17	-4,5	-1,926
753,946	-4,5	-1,907
764,715	-5,5	-1,993
775,466	-4,5	-1,95
786,242	-3	-1,478
797,011	-1	-0,958
807,781	-0,5	-0,832
818,538	0	-0,733
829,313	0	-0,67
840,077	0	-0,638
850,84	0	-0,657
861,616	0,5	-0,264
872,391	2	-0,064
883,178	2,5	-0,027
893,942	3	-0,015
904,711	3	-0,014
915,51	2,5	-0,009
926,292	3	-0,011
937,085	3	-0,014
947,873	2,5	-0,016
958,654	2,5	-0,022
969,435	2,5	-0,019
980,211	2,5	-0,021
990,986	3	-0,012
1001,762	3	-0,008
1012,531	3	-0,006
1023,312	3	-0,002
1034,094	3	-0,001
1044,851	3	-0,002
1055,626	3	-0,001
1066,396	3	-0,001
1077,154	3	-0,001
1087,929	3	-0,004
1098,692	3	0
1109,479	3	-0,014
1120,243	3	-0,001
1131,03	3	-0,001
1141,794	3	-0,002
1152,563	3	-0,003
1163,326	3	-0,009
1174,096	3	-0,012
1184,859	2,5	-0,037
1195,641	2	-0,097
1206,404	1	-0,244
1217,179	0	-0,536
1227,949	0	-0,563
1238,712	0	-0,71
1249,469	-0,5	-0,915
1260,221	-1,5	-1,27
1270,996	-2	-1,39
1281,748	-3	-1,741
1292,499	-4,5	-1,969
1303,28	-5	-2,079
1314,062	-5,5	-2,137
1324,831	-2,5	-1,532
1335,612	-1,5	-1,296
1346,37	-1,5	-1,308
1357,145	-1	-1,099
1367,903	-0,5	-1,122
1378,666	-0,5	-1,014
1389,423	-0,5	-1,08
1400,199	-1	-1,289
1410,968	-2,5	-1,668
1421,744	-3	-1,77
1432,501	-3,5	-2,033
1443,282	-3,5	-1,989
1454,052	-4,5	-2,191
1464,827	-4,5	-2,232
1475,59	-5	-2,32
1486,36	-5,5	-2,474
1497,129	-5	-2,343
1507,887	-6	-2,551
1518,65	-8	-2,789
1529,419	-9	-3,029
1540,183	-9,5	-3,049
1550,952	-9,5	-3,087
1561,71	-10,5	-3,483
1572,479	-10,5	-3,499
1583,236	-10,5	-3,498
1593,994	-10,5	-3,494
1604,763	-10	-3,486
1615,52	-9,5	-3,444
1626,29	-9,5	-3,417
1637,065	-9	-3,384
1647,829	-7,5	-3,276
1658,604	-6	-3,06
1669,367	-5,5	-2,918
1680,161	-5,5	-2,93
1690,93	-4,5	-2,681
1701,7	-3,5	-2,468
1712,469	-2,5	-2,111
1723,238	-2,5	-1,946
1734,014	-1,5	-1,731
1744,783	-1,5	-1,689
1755,552	-1	-1,603
1766,328	-1	-1,414
1777,085	-0,5	-1,216
1787,855	0	-0,88
1798,618	1,5	-0,53
1809,375	3	-0,316
1820,151	3	-0,17
1830,926	3	-0,218
1841,684	3	0
1852,459	3	-0,001
1863,228	3	-0,002
1873,998	3	-0,002
1884,767	3	-0,006
1895,53	2,5	-0,016
1906,312	2,5	-0,014
1917,075	3	-0,006
1927,857	3	-0,002
1938,638	3	-0,001
1949,389	3	-0,035
1960,171	3	-0,192
1970,94	2	-0,446
1981,704	1	-0,596
1992,479	1	-0,764
2003,254	0	-0,985
2014,018	0	-1,136
2024,793	-0,5	-1,367
2035,544	-0,5	-1,347
2046,32	-0,5	-1,451
2057,077	-1	-1,826
2067,841	-1,5	-1,865
2078,622	-2	-2,169
2089,397	-2	-2,156
2100,161	-1,5	-2,21
2110,924	-2	-2,313
2121,682	-2,5	-2,502
2132,445	-2,5	-2,685
2143,214	-3	-2,807
2153,984	-3	-2,956
2164,759	-3,5	-3,07
2175,529	-4,5	-3,36
2186,292	-5,5	-3,442
2197,055	-6	-3,475
2207,831	-6	-3,494
2218,6	-6	-3,497
2229,375	-6	-3,499
2240,133	-6	-3,401
2250,902	-5,5	-3,218
2261,666	-3,5	-2,969
2272,435	-2,5	-2,629
2283,222	-1,5	-2,369
2293,998	-1	-2,16
2304,767	-0,5	-2,064
2315,524	-0,5	-1,944
2326,288	0	-1,725
2337,045	0	-1,535
2347,821	0	-1,431
2358,59	0	-1,08
2369,359	0	-1,054
2380,123	0,5	-0,829
2390,892	0,5	-0,744
2401,656	0	-0,934
2412,425	0	-1,009
2423,194	0	-0,823
2433,97	0,5	-0,713
2444,745	0,5	-0,654
2455,509	0,5	-0,609
2466,29	0,5	-0,49
2477,047	1	-0,238
2487,799	1,5	-0,15
2498,574	1,5	-0,093
2509,337	2	-0,059
2520,101	2	-0,05
2530,87	2,5	-0,026
2541,628	2,5	-0,028
2552,409	2,5	-0,02
2563,172	2,5	-0,018
2573,936	3	-0,01
2584,705	2,5	-0,006
2595,468	2,5	-0,005
2606,244	2,5	-0,004
2617,019	2,5	-0,002
2627,795	2,5	-0,002
2638,57	2,5	-0,001
2649,333	2,5	-0,001
2660,109	2,5	0
2670,878	3	-0,029
2681,648	2,5	-0,226
2692,423	0,5	-0,616
2703,192	0,5	-0,652
2713,968	0	-0,964
2724,731	0	-1,151
2735,506	0	-1,331
2746,282	-0,5	-1,471
2757,045	-0,5	-1,6
2767,815	-0,5	-1,696
2778,578	-0,5	-1,831
2789,341	-1	-1,985
2800,117	-1	-2,186
2810,88	-1	-2,4
2821,65	-1,5	-2,495
2832,419	-1,5	-2,68
2843,182	-1,5	-2,831
2853,952	-1,5	-3,017
2864,721	-1,5	-3,181
2875,484	-2,5	-3,314
2886,272	-2,5	-3,391
2897,041	-3	-3,443
2907,811	-3	-3,461
2918,574	-3,5	-3,479
2929,331	-3,5	-3,49
2940,107	-3,5	-3,496
2950,876	-3,5	-3,498
2961,634	-3	-3,498
2972,397	-3,5	-3,499
2983,166	-3	-3,5
2993,942	-3	-3,499
3004,711	-3,5	-3,5
3015,486	-3	-3,44
3026,244	-3	-3,497
3037,007	-3	-3,5
3047,771	-3	-3,499
3058,54	-3	-3,439
3069,303	-3	-3,483
3080,061	-3	-3,5
3090,83	-3	-3,499
3101,6	-3	-3,499
3112,369	-3	-3,468
3123,15	-3	-3,333
3133,914	-3	-3,305
3144,671	-3	-3,201
3155,441	-3	-3,225
3166,198	-2	-3,09
3176,967	-2,5	-3,176
3187,737	-2,5	-3,171
3198,53	-1	-2,854
3209,293	-1	-2,783
3220,081	-0,5	-2,544
3229,53	2	0