Folder: Data-filter--cyclical-tests-BEPE-project-/Cycling_tests/_40perc/_1gap/entrada

Note: README.md
# Data filter (cyclical tests BEPE project)
python aplication to treat data get by fatigue testing machine

File: _1.txt
Time (s)	Load (N)	Displacement (mm)
0	0	-0,035
10,768	1,5	0
21,454	1,5	-0,001
32,139	1,5	-0,002
42,83	1,5	-0,003
53,522	1,5	-0,004
64,231	2	-0,004
74,934	2	-0,004
85,644	2	-0,002
96,347	2	-0,003
107,051	2	-0,001
117,754	2,5	-0,001
128,457	2	-0,065
139,185	1,5	-0,347
149,9	0	-0,758
160,622	-1,5	-0,955
171,313	-2,5	-1,149
182,016	-0,5	-0,818
192,726	-0,5	-0,811
203,453	-1,5	-0,999
214,174	-2	-1,045
224,872	-1	-0,908
235,587	-2,5	-1,122
246,309	-3	-1,36
257,048	-3	-1,311
267,775	-3	-1,452
278,509	-2,5	-1,34
289,242	-4,5	-1,828
299,988	-8	-2,575
310,727	-13	-3,264
321,46	-15,5	-3,44
332,17	-16,5	-3,474
342,885	-17	-3,496
353,63	-16,5	-3,498
364,37	-16,5	-3,499
375,085	-16,5	-3,42
385,813	-16	-3,111
396,54	-12	-2,725
407,279	-10	-2,455
418,007	-7	-2,064
428,734	-4,5	-1,749
439,498	-1	-0,928
450,243	-2,5	-1,274
461,001	-5	-1,79
471,74	-10	-2,489
482,467	-15,5	-3,359
493,189	-16	-3,498
503,922	-15,5	-3,467
514,679	-15,5	-3,5
525,407	-15,5	-3,5
536,146	-14,5	-3,057
546,879	-14,5	-3,052
557,619	-15,5	-3,5
568,346	-15	-3,48
579,08	-14,5	-3,441
589,831	-13,5	-3,378
600,564	-15	-3,488
611,304	-15	-3,495
622,031	-15	-3,496
632,771	-15	-3,496
643,504	-15	-3,495
654,243	-14,5	-3,429
664,989	-11,5	-3,266
675,71	-4,5	-2,15
686,443	-3	-1,64
697,183	-0,5	-0,858
707,91	-1,5	-1,212
718,644	-1	-1,024
729,389	-1,5	-1,256
740,116	-2,5	-1,551
750,838	-1,5	-1,176
761,577	-3	-1,76
772,311	-5	-2,296
783,038	-6	-2,565
793,771	-6	-2,481
804,499	-5,5	-2,546
815,226	-3,5	-2,076
825,959	-5,5	-2,49
836,699	-8,5	-3,004
847,426	-10,5	-3,198
858,16	-14	-3,454
868,887	-14	-3,456
879,621	-14,5	-3,476
890,354	-14,5	-3,496
901,075	-14,5	-3,499
911,803	-13,5	-3,074
922,53	-10,5	-2,752
933,245	-9	-2,581
943,973	-6,5	-2,228
954,7	-4,5	-1,939
965,427	-2	-1,404
976,167	0	-0,79
986,894	0,5	-0,355
997,61	1,5	-0,091
1008,331	3	-0,012
1019,07	3	-0,002
1029,804	3	0
1040,525	2,5	-0,328
1051,253	0,5	-0,714
1061,968	2,5	-0,47
1072,689	0,5	-0,713
1083,417	3	-0,185
1094,144	3	-0,176
1104,86	2	-0,378
1115,587	0	-0,886
1126,32	-1	-1,19
1137,048	-1,5	-1,33
1147,769	-1	-1,031
1158,491	-0,5	-1,036
1169,224	-1,5	-1,291
1179,939	-0,5	-1,004
1190,661	-1	-1,2
1201,388	-1	-1,218
1212,115	-2	-1,497
1222,843	-3	-1,818
1233,57	-3	-1,832
1244,298	-3,5	-2,046
1255,019	-3,5	-2,066
1265,74	-3	-1,906
1276,456	-2,5	-1,822
1287,177	-2,5	-1,824
1297,911	-3	-1,98
1308,644	-4,5	-2,373
1319,371	-5	-2,519
1330,093	-5,5	-2,598
1340,808	-7	-2,896
1351,529	-7,5	-3,054
1362,251	-9	-3,24
1372,966	-12,5	-3,442
1383,688	-13	-3,476
1394,409	-14	-3,49
1405,13	-14	-3,496
1415,84	-13,5	-3,498
1426,555	-14	-3,499
1437,265	-13,5	-3,361
1447,986	-13	-3,071
1458,707	-10	-2,854
1469,429	-7,5	-2,547
1480,144	-6	-2,138
1490,859	-3,5	-1,886
1501,575	-2	-1,579
1512,29	-0,5	-1,13
1522,994	0	-0,886
1533,709	0	-0,584
1544,418	1	-0,278
1555,122	1	-0,405
1565,843	1,5	-0,316
1576,559	1,5	-0,184
1587,274	1,5	-0,132
1597,989	2,5	-0,07
1608,705	3	-0,03
1619,426	3	-0,013
1630,148	3	-0,014
1640,863	3	-0,012
1651,578	3,5	-0,005
1662,3	3	-0,006
1673,021	3	-0,005
1683,743	3	-0,005
1694,452	3	-0,006
1705,173	3,5	-0,005
1715,889	3	-0,003
1726,604	3	-0,002
1737,325	3	-0,001
1748,053	3	-0,001
1758,768	3	-0,003
1769,478	3	-0,004
1780,205	3	0
1790,914	3	0
1801,636	3	-0,07
1812,351	3	-0,279
1823,072	3	-0,284
1833,794	2,5	-0,369
1844,509	3	-0,273
1855,219	3	-0,248
1865,934	3	-0,216
1876,649	3	-0,189
1887,371	3	-0,314
1898,086	3	-0,298
1908,796	3	-0,355
1919,511	2	-0,477
1930,22	3	-0,031
1940,942	3	0
1951,657	3	0
1962,373	3	-0,001
1973,082	3,5	-0,001
1983,785	3	-0,002
1994,507	3	-0,001
2005,216	3	-0,004
2015,925	3	-0,008
2026,635	3	-0,02
2037,356	3	-0,015
2048,072	3	-0,01
2058,787	3	-0,005
2069,502	3	-0,006
2080,218	3	-0,018
2090,933	3	-0,017
2101,649	3	-0,023
2112,364	3	-0,026
2123,073	3	-0,031
2133,789	3	-0,038
2144,492	2,5	-0,056
2155,196	2	-0,097
2165,911	2	-0,087
2176,626	1,5	-0,195
2187,336	1,5	-0,124
2198,045	2	-0,118
2208,76	1,5	-0,214
2219,47	1,5	-0,159
2230,191	1,5	-0,191
2240,907	0,5	-0,523
2251,616	-0,5	-1,19
2262,331	-1,5	-1,477
2273,047	-3,5	-2,045
2283,762	-6	-2,465
2294,472	-11	-2,956
2305,193	-12,5	-3,27
2315,902	-12,5	-3,492
2326,606	-12,5	-3,5
2337,327	-13	-3,5
2348,043	-12,5	-3,499
2358,752	-12,5	-3,496
2369,473	-11,5	-3,447
2380,183	-5,5	-2,899
2390,892	-5,5	-2,78
2401,607	-6	-2,881
2412,329	-6	-2,858
2423,05	-6	-2,868
2433,766	-6	-2,943
2444,475	-9	-3,348
2455,184	-11	-3,435
2465,906	-11,5	-3,459
2476,615	-10,5	-3,438
2487,331	-11,5	-3,462
2498,034	-12	-3,475
2508,755	-11	-3,463
2519,459	-10,5	-3,438
2530,18	-8	-3,227
2540,895	-5,5	-2,969
2551,611	-5	-2,809
2562,32	-4,5	-2,653
2573,036	-3,5	-2,505
2583,751	-3	-2,288
2594,46	-4	-2,445
2605,17	-4,5	-2,714
2615,885	-7	-3,166
2626,595	-8,5	-3,272
2637,31	-8,5	-3,317
2648,025	-8,5	-3,302
2658,747	-8	-3,304
2669,456	-9	-3,333
2680,166	-9	-3,366
2690,887	-8	-3,322
2701,596	-7	-3,159
2712,312	-5	-2,725
2723,027	-3,5	-2,364
2733,737	-2,5	-2,09
2744,452	-2,5	-2,171
2755,161	-1,5	-1,837
2765,871	-1	-1,591
2776,586	-1	-1,528
2787,302	-0,5	-1,215
2798,017	1	-0,725
2808,732	1	-0,621
2819,454	0	-1,035
2830,175	0	-1,146
2840,878	0	-0,873
2851,588	2	-0,515
2862,291	3	-0,289
2873,007	3	-0,052
2883,722	3	-0,001
2894,431	3	-0,002
2905,153	3	-0,001
2915,886	3,5	-0,001
2926,601	3	0
2937,317	2,5	-0,278
2948,044	2	-0,53
2958,76	0	-0,99
2969,475	-0,5	-1,505
2980,19	-1,5	-1,984
2990,9	-3	-2,445
3001,615	-3,5	-2,652
3012,331	-4,5	-2,925
3023,04	-5,5	-3,209
3033,743	-6	-3,32
3044,459	-8,5	-3,458
3055,162	-8,5	-3,456
3065,871	-9	-3,476
3076,587	-9	-3,477
3087,29	-9	-3,491
3098,006	-8,5	-3,497
3108,727	-8,5	-3,372
3119,442	-4	-2,635
3130,164	-1,5	-2,14
3140,879	-0,5	-1,667
3151,589	0	-1,254
3162,298	0	-0,912
3173,007	1	-0,548
3183,723	1,5	-0,154
3194,432	3	-0,02
3205,148	3	-0,003
3211,669	3,5	-0,001

File: _5.txt
Time (s)	Load (N)	Displacement (mm)
36,19	-1,5	-0,553
45,765	-13,5	-2,675
55,341	-5,5	-1,309
64,934	-7,5	-1,952
74,533	-10,5	-2
84,139	-4	-1,287
93,726	-15	-2,53
103,332	0,5	-0,626
112,913	-21	-3,208
122,501	2	0
132,094	-20,5	-3,499
141,676	2	-0,002
223,758	-6	-2,068
233,362	-6	-1,681
242,956	-3	-1,325
252,569	-10,5	-2,32
262,191	-2,5	-1,048
271,802	-14,5	-2,676
281,414	-0,5	-0,818
291,019	-17	-2,969
300,654	1,5	-0,47
310,278	-19	-3,445
319,895	2,5	0
401,989	0,5	-0,576
411,612	-15,5	-2,966
421,236	2,5	0
430,841	-18	-3,498
440,465	2,5	-0,005
450,064	-17,5	-3,461
459,681	1,5	-0,088
469,311	-12	-3,072
478,926	-0,5	-0,618
488,564	-9	-2,647
498,175	-2,5	-1,249
507,775	-4,5	-1,888
517,393	-4,5	-1,726
527,016	-4	-1,674
536,633	-7,5	-2,149
654,91	-10	-2,413
664,516	-1	-0,956
674,115	-12,5	-2,675
683,721	0	-0,695
693,344	-12,5	-2,763
702,937	1,5	-0,502
712,549	-17	-3,23
722,16	2,5	-0,005
731,772	-17	-3,499
741,371	3	-0,002
750,983	-17	-3,494
760,588	2,5	-0,032
770,194	-14	-3,366
779,811	0	-0,532
789,429	-7,5	-2,743
799,04	-1	-0,913
808,633	-5,5	-2,2
818,227	-4	-1,663
827,826	-2,5	-1,346
837,426	-11	-2,576
847,043	1	-0,538
856,643	-16,5	-3,401
866,254	3	0
875,848	-16,5	-3,498
885,447	3	-0,003
895,04	-16,5	-3,491
904,634	2	-0,044
986,649	2,5	-0,008
996,261	-15	-3,465
1005,86	1,5	-0,18
1015,478	-9	-2,79
1025,083	-1,5	-1,219
1034,676	-3	-1,482
1044,276	-12,5	-2,868
1053,875	3	-0,001
1063,481	-15,5	-3,493
1073,074	1,5	-0,132
1082,668	-7,5	-2,744
1092,261	-3	-1,507
1101,849	-1,5	-1,113
1111,454	-16	-3,307
1121,048	2,5	-0,002
1130,653	-15,5	-3,488
1140,246	1	-0,173
1149,84	-7,5	-2,773
1159,445	-3,5	-1,476
1169,039	-2,5	-1,615
1178,632	-10	-2,573
1188,232	0,5	-0,612
1197,831	-15,5	-3,294
1207,431	3	-0,001
1217,024	-15,5	-3,495
1226,642	2,5	-0,021
1236,235	-13,5	-3,418
1245,846	1	-0,308
1255,44	-7,5	-2,793
1265,039	-1,5	-1,119
1274,645	-4,5	-2,027
1284,238	-5,5	-1,995
1293,838	-2	-1,242
1303,437	-9	-2,499
1313,043	0,5	-0,592
1322,654	-15	-3,36
1332,248	3	-0,001
1341,853	-15	-3,495
1351,452	2,5	-0,02
1361,04	-13	-3,377
1370,645	0	-0,541
1380,239	-6	-2,512
1389,838	-2	-1,416
1399,45	-3	-1,754
1409,061	-5,5	-2,14
1418,655	-1	-0,891
1428,26	-13,5	-3,04
1437,848	3	0
1447,423	-15	-3,497
1457,01	3	-0,022
1466,61	-13,5	-3,405
1476,203	0	-0,476
1485,803	-6	-2,582
1495,408	-1,5	-1,296
1505,002	-3	-1,79
1514,601	-6,5	-2,294
1524,201	0,5	-0,626
1533,8	-15	-3,302
1543,399	3	-0,001
1552,993	-15	-3,494
1562,574	2	-0,069
1572,168	-6,5	-2,697
1581,755	-4	-1,817
1591,343	2	-0,44
1600,936	-15	-3,497
1610,53	2,5	-0,054
1620,129	-6,5	-2,73
1629,723	-4	-1,782
1639,322	0	-0,7
1648,909	-15	-3,494
1658,509	3	-0,003
1668,096	-15	-3,476
1677,702	1,5	-0,153
1687,307	-9	-3,054
1696,913	-1,5	-1,19
1706,506	-1,5	-1,268
1716,094	-15	-3,255
1725,687	3	-0,004
1735,286	-9	-3,043
1744,874	-4	-1,928
1754,461	3	0
1764,055	-14,5	-3,483
1773,648	0	-0,822
1783,254	-1,5	-1,339
1792,841	-14,5	-3,198
1802,447	3	-0,001
1812,04	-14,5	-3,465
1821,634	1	-0,274
1831,221	-5	-2,37
1840,814	-4	-1,865
1850,408	-1	-0,88
1859,989	-14,5	-3,211
1869,589	3	-0,001
1879,194	-15	-3,496
1888,782	2,5	-0,052
1898,375	-9,5	-3,174
1907,963	-0,5	-1,021
1917,556	-1,5	-1,314
1927,144	-14,5	-3,257
1936,737	3	-0,005
1946,33	-11	-3,323
1955,912	-0,5	-0,905
1965,487	-2,5	-1,665
1975,081	-9	-2,677
1984,668	3	0
1994,268	-14,5	-3,492
2003,867	2,5	-0,046
2013,467	-7,5	-2,882
2023,054	-1	-1,33
2032,648	-1,5	-1,282
2042,235	-13	-3,132
2051,828	3	-0,001
2061,416	-14,5	-3,49
2070,997	1,5	-0,159
2080,591	-6,5	-2,787
2090,184	-1,5	-1,251
2099,766	-1,5	-1,412
2109,341	-13,5	-3,06
2118,935	3,5	-0,001
2128,522	-14,5	-3,493
2138,109	1,5	-0,126
2147,697	-5,5	-2,597
2157,29	-1,5	-1,34
2166,884	-2	-1,778
2176,465	-6	-2,335
2186,053	0,5	-0,666
2195,64	-14	-3,348
2205,234	3	0
2214,821	-14	-3,498
2224,409	3	-0,008
2233,996	-14	-3,477
2243,583	1,5	-0,211
2253,171	-7,5	-2,913
2262,764	-0,5	-1,188
2272,358	-2	-1,737
2281,957	-5,5	-2,159
2291,551	-0,5	-0,953
2301,144	-13	-3,086
2310,744	3	0
2320,319	-14	-3,487
2329,894	1,5	-0,17
2339,482	-5	-2,515
2349,075	-3	-1,81
2358,669	-0,5	-0,946
2368,256	-14	-3,31
2377,844	3	-0,002
2387,431	-13,5	-3,467
2397,025	1	-0,308
2406,612	-5	-2,493
2416,2	-2,5	-1,644
2425,793	-1	-1,228
2435,38	-12	-2,989
2444,974	3,5	-0,001
2454,561	-13,5	-3,479
2464,143	0,5	-0,324
2473,724	-4	-2,27
2483,318	-3	-1,826
2492,917	-1	-0,996
2502,505	-14	-3,494
2512,104	3	-0,001
2521,692	-13,5	-3,475
2531,279	1	-0,191
2540,873	-5,5	-2,625
2550,466	-4	-2,067
2560,041	3	-0,163
2569,635	-13,5	-3,495
2579,222	1,5	-0,181
2588,792	-3	-2,081
2598,379	-8,5	-2,72
2607,967	3	-0,001
2617,56	-13,5	-3,489
2627,166	0,5	-0,4
2636,759	-3,5	-2,232
2646,352	-6,5	-2,41
2655,94	3	-0,001
2665,533	-12,5	-3,462
2675,127	0,5	-0,412
2684,714	-5	-2,654
2694,302	-2,5	-1,69
2703,895	-1,5	-1,47
2713,489	-5	-2,218
2723,07	-0,5	-0,866
2732,658	-12	-3,032
2742,251	3	-0,042
2751,839	-13	-3,439
2761,426	3	-0,263
2771,019	-13	-3,365
2780,601	3	0
2790,176	-13	-3,498
2799,764	3	-0,003
2809,357	-13	-3,49
2818,951	2	-0,077
2828,532	-5,5	-2,781
2838,119	-1,5	-1,558
2847,701	0	-0,855
2857,288	-12,5	-3,236
2866,882	3	-0,001
2876,469	-12,5	-3,486
2886,051	1	-0,3
2895,638	-4	-2,488
2905,22	-2	-1,783
2914,813	0	-0,93
2924,395	-11	-3,164
2933,982	3	-0,002
2943,569	-11	-3,478
2953,163	2	-0,096
2962,75	-4,5	-2,746
2972,332	0	-1,019
2981,925	-2,5	-2,078
2991,519	-1,5	-1,746
3001,112	-1	-1,476
3010,7	-4	-2,379
3020,287	2	-0,485
3029,875	-10	-3,278
3039,456	3	0
3049,037	-10	-3,497
3058,625	3	-0,01
3068,212	-9	-3,436
3077,8	1	-0,344
3087,387	-3	-2,542
3096,969	-0,5	-1,498
3106,562	-1	-1,556
3116,162	-3,5	-2,383
3125,743	3	-0,392
3135,336	-9,5	-3,499
3144,918	3	-0,002
3154,505	-9	-3,488
3164,093	2	-0,072
3173,674	-5	-3,182
3183,262	0	-0,895
3192,855	-1,5	-2,035
3202,449	-1,5	-2,024
3212,036	0	-1,016
3221,618	-8,5	-3,132
3231,205	3	-0,001
3237,685	3	0