Folder: Data-filter--cyclical-tests-BEPE-project-/ensaios_Ciclicos/_30perc/_3gap/entrada

Note: README.md
# Data filter (cyclical tests BEPE project)
python aplication to treat data get by fatigue testing machine

File: _1.txt
Time (s)	Load (N)	Displacement (mm)
0	0	-0,025
12,387	-7,5	-0,943
25,034	-21	-2,658
38,239	-8	-1,268
50,407	-24,5	-3,467
62,448	1,5	-0,002
74,915	-6	-1,168
86,819	-12,5	-2,533
98,713	-5	-0,937
110,997	-24	-3,494
122,804	1,5	-0,022
177,845	-22,5	-3,465
189,323	-9	-1,707
200,639	2	-0,005
212,464	-22,5	-3,484
223,69	-21	-2,817
235,124	1,5	-0,055
246,349	1	-0,471
257,623	-13	-2,741
268,578	-18,5	-3,391
279,258	-14	-2,832
290,063	-12	-2,731
340,792	-6	-1,423
351,518	-10	-1,957
362,209	-16	-2,688
373,008	-18,5	-2,926
383,694	-21,5	-3,5
394,331	-21	-3,496
404,998	-20,5	-3,469
415,552	-11	-2,655
464,33	-0,5	-0,481
474,936	-8,5	-1,898
485,244	-20,5	-3,481
533,427	-20,5	-3,267
543,735	-12,5	-2,913
554,096	2	-0,058
564,841	2,5	-0,001
575,233	-1	-0,649
585,552	-20	-3,35
595,799	-10	-2,562
606,143	2,5	-0,009
653,888	0	-0,53
664,165	-0,5	-0,538
674,449	-20	-3,5
684,726	-10,5	-2,573
694,896	2,5	-0,004
705,221	-5,5	-1,628
715,409	-19,5	-3,461
725,668	-0,5	-0,733
735,879	-0,5	-0,528
746,163	-19,5	-3,5
756,441	-9,5	-2,526
766,646	2,5	-0,004
776,923	-8	-1,894
787,267	-19,5	-3,493
798,012	-18,5	-3,456
808,325	-2	-1,103
818,531	0,5	-0,141
828,832	-15	-2,672
839,05	-12,5	-3,056
849,249	2,5	-0,001
859,412	-7	-1,887
870,152	-12,5	-2,51
880,412	-16,5	-3,368
890,575	2,5	-0,001
900,768	-6	-1,704
910,967	-18	-3,464
921,095	2,5	-0,128
931,342	-3	-1,152
941,452	-18,5	-3,468
951,657	0	-0,64
961,869	-0,5	-0,626
972,044	-19	-3,498
982,231	-3	-1,47
992,419	1,5	-0,097
1002,588	-18,5	-3,408
1012,794	-6	-2,17
1022,999	2,5	-0,013
1033,145	-17	-3,066
1043,29	-5,5	-1,992
1053,387	0,5	-0,226
1063,557	-18,5	-3,499
1073,63	-2	-1,177
1083,752	-0,5	-0,58
1093,855	-19	-3,497
1103,988	-2	-1,018
1114,11	-1	-0,768
1124,255	-18,5	-3,494
1134,461	-2,5	-1,188
1144,6	0	-0,454
1154,805	-18,5	-3,499
1164,957	-4	-1,65
1175,138	1,5	-0,073
1185,272	-18,5	-3,499
1195,441	-4	-1,804
1206,121	0	-0,668
1216,266	-1	-0,763
1226,382	-18,5	-3,493
1236,509	0	-0,67
1246,642	-2	-1,057
1256,758	-17,5	-3,48
1266,885	2,5	-0,348
1276,971	-5	-1,707
1287,068	-15,5	-3,374
1297,213	2,5	-0,001
1307,383	-5,5	-1,688
1317,516	-15	-3,385
1327,632	2,5	-0,001
1337,741	-9,5	-2,231
1347,838	-9,5	-2,858
1357,954	3	-0,008
1368,045	-14	-2,773
1378,167	-7,5	-2,447
1388,264	3	-0,017
1398,32	-18	-3,5
1408,435	-3,5	-1,772
1418,496	0,5	-0,246
1428,57	-18	-3,498
1438,625	-1,5	-0,937
1448,669	-2,5	-1,217
1458,724	-16,5	-3,438
1468,78	3	-0,001
1478,901	-7,5	-2,054
1488,974	-12	-3,058
1499,006	3	-0,005
1509,139	-12	-2,608
1519,213	-6,5	-2,324
1529,238	1,5	-0,105
1539,264	-18	-3,498
1549,307	0	-0,737
1559,416	-2	-1,145
1569,562	-17,5	-3,48
1579,593	3	0
1589,619	-10	-2,368
1599,614	-5,5	-2,217
1609,687	2	-0,079
1619,755	-17,5	-3,498
1629,78	-0,5	-0,852
1639,824	-2,5	-1,323
1649,807	-11	-3
1659,875	2,5	-0,012
1669,841	-17,5	-3,499
1679,836	0	-0,668
1689,837	-5	-1,792
1699,862	-11,5	-3,022
1709,864	2,5	-0,016
1719,871	-17,5	-3,499
1730,065	-4	-1,764
1740,138	0,5	-0,3
1750,188	-17,5	-3,496
1760,195	2	-0,383
1770,172	-9,5	-2,288
1780,15	-5	-2,175
1790,163	0,5	-0,158
1800,159	-17	-3,495
1810,184	2,5	-0,377
1820,185	-9	-2,278
1830,181	-5,5	-2,265
1840,189	0,5	-0,174
1850,16	-17	-3,495
1860,203	2,5	-0,234
1870,196	-7	-2,144
1880,176	-5,5	-2,296
1890,159	0	-0,558
1900,197	-16,5	-3,477
1910,168	2,5	-0,002
1920,14	-15,5	-3,091
1930,099	-2,5	-1,451
1940,101	-1	-0,907
1950,072	-14,5	-3,407
1960,043	2,5	-0,002
1970,057	-14	-2,902
1980,07	-4	-1,943
1990,108	1	-0,148
2000,151	-16	-3,498
2010,135	0,5	-0,599
2020,1	-4	-1,754
2030,126	-11	-3,172
2040,097	2,5	-0,014
2050,056	-15,5	-3,499
2060,064	-0,5	-0,842
2070,059	-3	-1,577
2080,037	-9,5	-2,912
2090,02	2,5	-0,031
2100,087	-15	-3,486
2110,101	-1,5	-1,217
2120,114	-1,5	-1,198
2130,11	-12	-3,342
2140,099	2,5	-0,004
2150,131	-12,5	-3,026
2160,138	-3	-1,762
2170,098	0	-0,802
2180,129	-14,5	-3,483
2190,154	2,5	-0,015
2200,126	-7	-2,415
2210,127	-4,5	-2,199
2220,159	1,5	-0,113
2230,13	-14	-3,495
2240,209	0	-0,659
2250,187	-3,5	-1,863
2260,2	-6	-2,738
2270,226	2,5	-0,028
2280,215	-13,5	-3,499
2290,241	-1	-1,162
2300,218	-1,5	-1,3
2310,183	-9	-3,097
2320,155	2,5	-0,025
2330,246	-13	-3,326
2340,218	-1	-1,104
2350,243	-0,5	-1,029
2360,215	-10,5	-3,419
2370,24	2,5	-0,001
2380,23	-9,5	-2,858
2390,243	-2	-1,796
2400,221	0	-0,549
2410,21	-12	-3,475
2420,181	3	-0,001
2430,153	-8,5	-2,858
2440,118	-1,5	-1,42
2450,143	0	-0,857
2460,163	-11	-3,474
2470,162	3	-0,001
2480,124	-10,5	-3,136
2490,131	-1,5	-1,487
2500,121	0	-1,102
2510,122	-10	-3,43
2520,105	3	-0,005
2530,084	-11,5	-3,438
2540,091	-1	-1,258
2550,092	-0,5	-1,297
2560,069	-7	-3,118
2570,035	2,5	-0,038
2580,012	-10,5	-3,497
2590,026	2	-0,287
2600,045	-2,5	-2,013
2610,052	-3,5	-2,378
2620,078	1,5	-0,136
2630,031	-10,5	-3,494
2640,009	2,5	-0,13
2649,998	-5	-2,462
2659,964	-2,5	-1,952
2669,899	0	-0,918
2679,876	-7,5	-3,318
2689,86	2,5	-0,02
2699,873	-10,5	-3,499
2709,887	0	-0,709
2719,858	-2,5	-2,019
2729,848	-3	-2,328
2739,825	1	-0,368
2749,808	-10	-3,474
2759,768	3	-0,003
2769,733	-10,5	-3,289
2779,777	-1	-1,402
2789,73	0	-1,202
2799,707	-5	-3,022
2809,691	2,5	-0,034
2819,681	-10,5	-3,498
2829,646	3	-0,201
2839,605	-5	-2,558
2849,583	-1,5	-1,927
2859,542	0	-0,834
2869,507	-8,5	-3,422
2879,461	3	-0,003
2889,451	-9	-3,219
2899,476	-0,5	-1,278
2909,501	0	-1,009
2919,461	-6,5	-3,356
2929,468	3	-0,009
2939,451	-8,5	-3,499
2949,429	0	-0,669
2959,389	-1,5	-2,027
2969,378	-2	-2,367
2979,361	1	-0,29
2989,315	-8	-3,472
2999,286	3	-0,001
3009,234	-8	-3,362
3019,187	0	-0,958
3029,146	-1	-1,733
3039,118	-3	-2,589
3049,071	1	-0,198
3059,043	-8	-3,488
3069,098	3	-0,009
3079,076	-3,5	-2,649
3089,041	-1	-1,655
3099,013	0	-0,929
3108,978	-7	-3,422
3118,937	3	-0,007
3128,897	-8	-3,5
3138,922	-0,5	-1,153
3148,906	0	-1,404
3158,907	-5	-3,148
3168,884	2,5	-0,02
3178,892	-8	-3,499
3188,887	0	-0,752
3198,901	-1	-1,844
3208,896	-3	-2,756
3218,856	2	-0,057
3228,827	-7,5	-3,496
3238,782	3	0
3248,83	-1,5	-2,302
3258,357	3	0