Folder: Data-filter--cyclical-tests-BEPE-project-/ensaios_Ciclicos/_50perc/_1gap/entrada

Note: README.md
# Data filter (cyclical tests BEPE project)
python aplication to treat data get by fatigue testing machine

File: _2.txt
Time (s)	Load (N)	Displacement (mm)
36,37	-5,5	-1,384
41,296	1,5	0
46,245	-11,5	-2,771
51,195	-19	-3,353
56,151	0	-0,204
61,07	0,5	-0,456
66,02	-17	-3,43
70,966	-9	-2,06
75,895	1,5	-0,004
80,851	-8,5	-2,452
85,783	-18	-3,5
90,733	-1	-0,56
95,676	-1	-0,85
100,632	-17,5	-3,483
105,576	-7	-1,824
110,531	1,5	-0,001
115,463	-10	-2,732
120,395	-17,5	-3,258
125,349	0	-0,221
130,3	-1,5	-0,838
135,25	-17	-3,486
140,182	-7	-1,894
145,137	1,5	-0,001
186,439	-3	-1,18
191,359	-16,5	-3,491
196,303	-5,5	-1,722
201,246	1,5	-0,002
206,184	-9	-2,668
211,122	-16	-3,234
216,059	1	-0,075
221,003	-4,5	-1,692
225,953	-16,5	-3,498
230,885	-1	-0,751
235,834	-1,5	-0,859
240,778	-16,5	-3,486
245,716	-4,5	-1,57
250,665	1,5	0
255,609	-12,5	-3,278
260,541	-9,5	-2,38
265,485	1,5	-0,007
270,434	-7	-2,327
275,378	-16	-3,296
280,328	1	-0,092
285,271	-3,5	-1,593
290,215	-15,5	-3,498
404,137	0	-0,241
409,08	-3	-1,375
414,018	-15	-3,497
418,962	-2	-1,079
423,887	1	-0,415
428,825	-14,5	-3,442
433,757	-5,5	-1,849
438,695	1,5	-0,001
443,632	-9,5	-3,008
448,558	-12	-2,731
453,502	1,5	-0,036
458,434	-3,5	-1,844
463,371	-15	-3,499
468,303	-1	-0,709
473,229	0	-0,728
478,166	-15	-3,474
483,092	-4,5	-1,758
488,024	1,5	-0,001
492,95	-7,5	-2,749
497,881	-13,5	-3,015
502,813	1	-0,074
507,745	-3	-1,655
621,402	-2	-1,288
626,328	-15	-3,492
631,26	-3,5	-1,45
636,179	1,5	0
641,099	-9,5	-3,073
646,025	-10,5	-2,661
650,95	1,5	-0,03
655,87	-4	-1,822
660,802	-15	-3,499
665,734	-0,5	-0,643
670,647	-1	-0,804
675,579	-14,5	-3,478
680,511	-3,5	-1,693
685,431	2	-0,001
690,35	-8	-2,793
695,282	-13	-2,986
700,202	1,5	-0,072
705,139	-3	-1,643
710,065	-14,5	-3,498
714,991	0	-0,728
719,917	-0,5	-0,804
724,848	-14	-3,469
729,774	-3	-1,574
734,682	2	-0,001
739,607	-7	-2,67
744,527	-13	-3,032
749,459	1,5	-0,046
754,385	-3	-1,704
759,322	-14,5	-3,499
764,242	-0,5	-0,8
769,162	0,5	-0,509
774,099	-13,5	-3,447
779,019	-4,5	-1,841
783,945	2	-0,002
788,877	-7,5	-2,76
793,808	-13	-2,986
798,734	1	-0,096
803,66	-3	-1,633
808,579	-14,5	-3,497
813,505	-1	-0,969
818,425	1,5	-0,357
823,357	-13	-3,428
828,276	-6	-2,215
833,208	2	-0,007
838,128	-5	-2,299
843,054	-14,5	-3,457
847,991	0	-0,232
852,911	-1,5	-1,135
857,837	-14,5	-3,492
862,756	-2	-1,287
867,694	2	-0,176
981,25	-2,5	-1,503
986,169	-14	-3,497
991,125	-0,5	-0,774
996,045	-0,5	-0,833
1000,982	-13,5	-3,488
1005,896	-2,5	-1,454
1010,816	1,5	-0,046
1015,736	-10	-3,251
1020,673	-6,5	-2,31
1025,581	2	-0,007
1030,513	-5	-2,314
1035,433	-14	-3,307
1040,37	1	-0,168
1045,29	-2	-1,348
1050,216	-14	-3,496
1055,141	-1,5	-1,139
1060,067	1,5	-0,284
1064,987	-11,5	-3,381
1069,913	-6	-2,215
1074,826	2	-0,008
1079,746	-5	-2,352
1084,666	-14	-3,306
1089,585	1	-0,128
1094,517	-2	-1,4
1099,437	-13,5	-3,496
1104,369	-1	-1,029
1109,282	1,5	-0,287
1114,214	-12	-3,42
1119,122	-5	-2,083
1124,041	2	-0,002
1128,973	-6,5	-2,707
1133,893	-12	-2,968
1138,825	1,5	-0,046
1143,744	-3	-1,715
1148,652	-13,5	-3,498
1153,572	-1,5	-1,135
1158,485	2	-0,064
1163,399	-10,5	-3,302
1168,319	-6,5	-2,394
1173,233	2	-0,012
1178,152	-4,5	-2,295
1183,06	-13,5	-3,5
1187,981	0	-0,313
1192,906	-1,5	-1,092
1197,843	-13,5	-3,493
1202,757	-2	-1,359
1207,677	2	0
1212,608	-9,5	-3,236
1217,522	-7,5	-2,453
1222,454	2	-0,006
1227,374	-5	-2,375
1232,287	-13,5	-3,316
1237,201	1	-0,121
1242,115	-2,5	-1,427
1247,034	-13,5	-3,497
1251,954	0	-0,745
1256,868	0	-0,663
1261,794	-13,5	-3,471
1266,707	-3	-1,67
1271,627	2	-0,001
1276,547	-8	-2,952
1281,466	-10	-2,801
1286,392	2	-0,025
1291,312	-3,5	-1,885
1296,232	-13,5	-3,499
1301,163	0	-0,399
1306,083	-1	-1,064
1311,015	-13,5	-3,491
1315,94	-2	-1,276
1320,86	2	-0,076
1325,786	-10,5	-3,317
1330,718	-6	-2,242
1335,637	2	-0,006
1340,557	-4,5	-2,314
1345,471	-13	-3,492
1350,391	0,5	-0,215
1355,304	-1,5	-1,144
1360,23	-13	-3,491
1365,156	-1,5	-1,253
1370,069	2	-0,118
1374,989	-10,5	-3,351
1379,909	-5,5	-2,233
1384,829	2	-0,005
1389,742	-5	-2,514
1394,662	-13	-3,338
1399,582	1	-0,165
1404,501	-1,5	-1,205
1409,415	-13,5	-3,494
1414,335	-2	-1,239
1419,255	2	-0,064
1424,168	-9	-3,185
1429,082	-7,5	-2,5
1434,008	2	-0,014
1438,927	-4	-2,118
1443,847	-13	-3,5
1448,761	0	-0,316
1453,687	-1,5	-1,141
1458,6	-13	-3,49
1463,52	-2,5	-1,532
1468,434	2	-0,001
1473,359	-8,5	-3,109
1478,273	-9	-2,66
1483,211	2	-0,016
1488,131	-3	-2,027
1493,05	-13	-3,499
1497,964	0	-0,428
1502,884	-1	-0,999
1507,798	-13	-3,484
1512,711	-3	-1,654
1517,631	2	-0,001
1522,545	-7,5	-3,052
1527,464	-9	-2,751
1532,378	2	-0,037
1537,292	-2,5	-1,732
1542,212	-13	-3,499
1547,131	0	-0,692
1552,051	0	-0,672
1556,977	-12,5	-3,455
1561,902	-4	-1,895
1566,822	2	-0,002
1571,742	-6,5	-2,872
1576,662	-9,5	-2,77
1581,569	2	-0,029
1586,489	-3	-1,936
1591,409	-13	-3,499
1596,322	0	-0,694
1601,248	0	-0,775
1606,174	-12,5	-3,474
1611,088	-3	-1,794
1616,007	2	-0,001
1620,927	-7,5	-2,9
1625,841	-10,5	-2,874
1630,754	1,5	-0,045
1635,674	-3	-1,884
1640,588	-13	-3,499
1645,502	0	-0,638
1650,421	-0,5	-0,838
1655,335	-12,5	-3,478
1660,249	-2,5	-1,614
1665,169	2	-0,001
1670,082	-6,5	-2,756
1675,002	-9	-2,844
1679,919	1,5	-0,079
1684,823	-2	-1,578
1689,737	-12,5	-3,498
1694,657	0	-0,824
1699,577	0	-0,625
1993,68	2	-0,008
1998,593	-3,5	-2,216
2003,507	-12,5	-3,499
2008,421	0	-0,323
2013,335	-1	-1,129
2018,248	-12,5	-3,492
2023,162	-1,5	-1,352
2028,082	2	-0,046
2033,001	-9	-3,274
2037,909	-6	-2,462
2042,823	2	-0,014
2047,737	-3	-2,134
2052,656	-12,5	-3,484
2057,57	0,5	-0,276
2062,484	-0,5	-1,024
2067,404	-12	-3,491
2072,317	-1,5	-1,431
2077,231	2	-0,018
2082,145	-7,5	-3,116
2087,058	-8	-2,71
2091,972	1,5	-0,037
2096,886	-2,5	-1,854
2282,563	2	-0,017
2287,483	-2,5	-1,924
2292,403	-11,5	-3,499
2297,316	0	-0,588
2302,23	0	-0,723
2307,138	-11	-3,462
2312,052	-2,5	-1,872
2316,971	2	-0,002
3189,135	-1,5	-1,758
3194,043	-8	-3,498
3198,963	0	-0,594
3203,871	0,5	-0,61
3208,778	-7	-3,451
3212,276	2	-0,001

File: _3.txt
Time (s)	Load (N)	Displacement (mm)
72,865	0	-0,206
80,383	-14,5	-3,335
87,903	0	-0,193
95,4	-11	-3,024
102,906	-1,5	-0,676
255,891	1,5	-0,037
263,414	-15	-3,482
270,946	1,5	-0,015
278,443	-15	-3,469
285,955	1,5	-0,036
438,742	2	-0,012
446,224	-14,5	-3,474
453,723	1,5	-0,039
461,223	-13	-3,424
468,717	0,5	-0,164
476,216	-10,5	-3,132
483,704	0	-0,57
491,209	-9	-2,909
498,709	-1	-0,73
506,22	-7	-2,608
731,13	2	-0,011
738,611	-13,5	-3,477
746,093	1,5	-0,037
753,58	-12,5	-3,415
761,062	0,5	-0,149
768,543	-9	-3,149
776,026	0	-0,582
783,513	-7	-2,749
790,988	-1	-0,948
798,47	-5	-2,376
805,951	-2	-1,286
813,451	-4	-2,062
820,933	-4,5	-1,822
828,408	-2	-1,347
1234,087	0	-0,651
1241,562	-9,5	-2,816
1249,038	0	-0,641
1256,508	-11,5	-2,99
1263,989	1,5	-0,45
1271,465	-11	-2,971
1278,94	2	-0,358
1286,41	-13	-3,3
1293,885	2	-0,246
1301,361	-12,5	-3,37
1308,831	2	-0,001
1316,312	-12,5	-3,5
1323,782	2	-0,001
1331,257	-13	-3,499
1338,733	2	-0,002
1346,226	-13	-3,498
1353,696	2	-0,005
1361,166	-12,5	-3,483
1368,641	2	-0,017
1376,117	-12,5	-3,471
1383,592	1,5	-0,054
1391,08	-11	-3,426
1398,555	1	-0,161
1406,031	-9	-3,23
1413,507	0	-0,353
1420,982	-7,5	-2,993
1428,452	-0,5	-0,796
1435,927	-5	-2,422
1443,397	-2,5	-1,417
1450,872	-3	-1,827
1458,348	-4,5	-1,943
1465,83	-1,5	-1,38
1473,299	-7,5	-2,443
1480,775	0,5	-0,594
1488,244	-12,5	-3,274
1495,726	2	-0,003
1503,196	-12,5	-3,499
1510,677	2	-0,001
1518,147	-12,5	-3,499
1525,616	2	-0,002
1533,086	-12,5	-3,488
1540,561	2	-0,032
1548,031	-11,5	-3,433
1555,512	1,5	-0,091
1562,982	-9	-3,231
1570,464	0	-0,544
1577,933	-5,5	-2,595
1585,403	-2	-1,45
1592,872	-2,5	-1,835
1600,342	-5,5	-2,248
1607,817	-1	-0,937
1615,293	-8,5	-2,717
1622,757	1,5	-0,456
1630,226	-12	-3,377
1637,696	2	-0,001
1645,165	-12,5	-3,498
1652,641	2	-0,004
1660,11	-12,5	-3,493
1667,58	1,5	-0,028
1675,056	-11,5	-3,45
1682,525	1	-0,16
1690,007	-9	-3,219
1697,476	0	-0,415
1704,958	-7	-2,96
1712,428	-0,5	-0,873
1719,897	-4,5	-2,362
1727,367	-1,5	-1,412
1734,836	-2,5	-1,706
1742,306	-3,5	-1,971
1749,775	-1,5	-1,402
1757,245	-6	-2,378
1764,72	-0,5	-0,846
1772,202	-9	-2,858
1779,684	1,5	-0,266
1787,147	-12	-3,4
1794,635	1,5	-0,374
1802,104	-12	-3,161
1809,574	1,5	-0,296
1817,05	-12	-3,342
1824,519	2	-0,001
1831,995	-12,5	-3,499
1839,458	1,5	-0,003
1846,934	-12,5	-3,496
1854,409	2	-0,007
1861,879	-12	-3,482
1869,349	1,5	-0,024
1876,812	-12	-3,472
1884,288	1,5	-0,041
1891,757	-11	-3,43
1899,239	1,5	-0,099
1906,72	-8,5	-3,249
1914,202	0	-0,304
1921,666	-8	-3,152
1929,141	0	-0,53
1936,611	-5,5	-2,776
1944,08	0	-0,776
1951,55	-4	-2,392
1959,031	-1	-1,286
1966,507	-3	-2,122
1973,971	-2	-1,484
1981,44	-3	-1,867
1988,916	-3	-1,743
1996,385	-1,5	-1,582
2003,861	-4	-2,104
2011,33	-1,5	-1,24
2018,812	-6,5	-2,543
2026,288	-0,5	-0,77
2033,751	-9,5	-2,971
2041,221	2	-0,235
2048,69	-11,5	-3,5
2056,16	2	-0,001
2063,635	-11,5	-3,498
2071,111	2	-0,003
2078,581	-11	-3,496
2086,05	2	-0,008
2093,52	-11	-3,482
2100,989	1,5	-0,042
2108,459	-9,5	-3,412
2115,928	1	-0,111
2123,398	-8	-3,304
2130,868	1	-0,145
2138,331	-8	-3,264
2145,807	0,5	-0,352
2153,282	-6,5	-2,977
2160,746	0	-0,656
2168,227	-5	-2,708
2175,685	-0,5	-1,024
2183,167	-3	-2,18
2190,636	-1,5	-1,488
2198,106	-2	-1,716
2205,581	-3	-1,974
2213,051	-1	-1,09
2220,52	-6	-2,583
2227,996	0	-0,592
2235,46	-10	-3,16
2242,929	2	-0,076
2250,411	-10,5	-3,5
2257,886	2	-0,001
2265,356	-10,5	-3,499
2272,831	2	-0,002
2280,295	-10,5	-3,499
2287,765	2	-0,002
2295,228	-10,5	-3,498
2302,704	2	-0,003
2310,179	-10,5	-3,497
2317,655	2	-0,004
2325,124	-10,5	-3,495
2332,6	2	-0,008
2340,064	-10	-3,48
2347,533	2	-0,04
2354,997	-9	-3,419
2362,466	1,5	-0,107
2369,93	-8,5	-3,373
2377,393	1	-0,143
2384,863	-8	-3,278
2392,333	1	-0,161
2399,808	-7	-3,239
2407,278	0	-0,303
2414,753	-6,5	-3,132
2422,217	0	-0,511
2429,687	-5,5	-2,936
2437,156	0	-0,656
2444,626	-5	-2,77
2452,089	0	-0,714
2459,565	-5,5	-2,9
2467,04	0	-0,476
2474,51	-5,5	-2,972
2481,979	0	-0,541
2489,449	-4,5	-2,694
2496,919	0	-0,782
2504,388	-5	-2,778
2511,858	0	-0,73
2519,327	-4,5	-2,68
2526,797	0	-0,811
2534,285	-5	-2,763
2541,748	0	-0,732
2549,218	-4,5	-2,658
2556,687	0	-0,877
2564,151	-3,5	-2,482
2571,626	-0,5	-0,937
2579,096	-3,5	-2,379
2586,566	-1	-1,23
2594,035	-3	-2,143
2601,505	-1,5	-1,44
2608,98	-2	-1,82
2616,456	-2	-1,796
2623,925	-1	-1,43
2631,389	-4,5	-2,418
2638,859	-0,5	-0,886
2646,328	-6,5	-2,834
2653,792	0,5	-0,564
2661,267	-7,5	-2,894
2668,731	1,5	-0,412
2676,2	-10	-3,291
2683,664	2	-0,064
2691,134	-9,5	-3,486
2698,597	2	-0,006
2706,085	-9,5	-3,5
2713,548	1,5	-0,001
2721,018	-10	-3,499
2728,487	1,5	-0,002
2735,951	-9,5	-3,496
2743,421	2	-0,011
2750,89	-9	-3,482
2758,36	2	-0,03
2765,817	-8,5	-3,452
2773,287	1,5	-0,06
2780,751	-8	-3,424
2788,226	1	-0,129
2795,696	-6	-3,27
2803,159	0,5	-0,334
2810,623	-5,5	-3,11
2818,092	0	-0,34
2825,556	-5,5	-3,101
2833,013	0	-0,462
2840,477	-6	-3,244
2847,941	1	-0,172
2855,404	-7	-3,396
2862,862	0,5	-0,176
2870,337	-5,5	-3,258
2877,801	1	-0,103
2885,265	-5,5	-3,257
2892,74	0	-0,258
2900,21	-6,5	-3,379
2907,679	1	-0,105
2915,149	-6,5	-3,378
2922,618	1,5	-0,076
2930,088	-7,5	-3,45
2937,552	1,5	-0,021
2945,033	-8	-3,494
2952,503	2	-0,003
2959,96	-8	-3,499
2967,424	2	-0,179
2974,893	-7,5	-3,175
2982,363	1	-0,483
2989,832	-5	-2,786
2997,302	0	-0,922
3004,766	-4,5	-2,711
3012,241	0	-0,836
3019,705	-4	-2,595
3027,168	-0,5	-1,302
3034,638	-2,5	-2,169
3042,108	-1	-1,353
3049,571	-2,5	-2,207
3057,029	-1	-1,41
3064,492	-2	-2,091
3071,968	-0,5	-1,43
3079,437	-1	-1,929
3086,895	-1	-1,726
3094,359	-0,5	-1,532
3101,828	-2	-2,124
3109,292	0	-1,17
3116,767	-3,5	-2,792
3124,231	0	-0,588
3131,7	-4,5	-3,058
3139,164	0,5	-0,357
3146,64	-5,5	-3,346
3154,109	1,5	-0,078
3161,573	-7	-3,452
3169,036	2	-0,033
3176,512	-7,5	-3,489
3183,981	2	-0,007
3191,451	-7,5	-3,497
3198,927	2	-0,002
3206,384	-7,5	-3,499
3213,854	2	-0,001
3215,996	2	-0,001