Folder: Data-filter--cyclical-tests-BEPE-project-/ensaios_Ciclicos/_20perc/_3gap/entrada

Note: README.md
# Data filter (cyclical tests BEPE project)
python aplication to treat data get by fatigue testing machine

File: _1.txt
Time (s)	Load (N)	Displacement (mm)
0	0	-0,124
12,048	-16	-1,795
24,665	-31	-3,392
36,676	-6	-1,359
48,526	-8	-1,224
60,981	-23	-2,722
72,842	-9	-1,716
85,015	3	-0,005
96,703	-28,5	-3,497
108,252	3	-0,006
120,407	-11	-1,764
132,035	-7,5	-1,81
143,68	-9,5	-1,665
155,176	-3	-0,886
166,611	-27	-3,499
177,914	-1	-0,51
189,47	-11	-2,288
200,959	-13,5	-2,12
212,775	-10	-2,193
223,812	-26	-3,48
235,055	-7,5	-1,602
246,316	3,5	0
257,722	-25	-3,47
268,971	-9	-1,814
280,148	3,5	-0,005
291,194	-4,5	-1,42
302,281	-23,5	-3,442
313,897	2	-0,083
325,026	-3	-1,132
336,173	-24,5	-3,476
347,753	3	-0,038
358,624	3,5	0
369,519	-4	-1,369
380,409	-15	-3,012
391,472	-24,5	-3,273
402,452	-5	-1,384
413,329	3	-0,061
424,615	-6	-1,822
435,521	-18,5	-3,261
446,459	-24	-3,499
457,246	-17,5	-2,632
468,124	-3	-1,071
478,995	3,5	-0,031
489,764	3,5	-0,002
500,468	3	-0,352
511,267	-4	-1,385
522,007	-7,5	-2,175
532,68	-13	-2,808
543,443	-22	-3,463
554,087	-23	-3,475
564,76	-23,5	-3,491
575,44	-23,5	-3,497
586,077	-23,5	-3,498
596,756	-23,5	-3,499
607,334	-23,5	-3,499
617,965	-23	-3,499
628,536	-23	-3,498
639,186	-23,5	-3,499
649,787	-23	-3,499
660,395	-23	-3,498
671,008	-23	-3,498
681,648	-23	-3,498
692,253	-23	-3,499
702,788	-22,5	-3,496
713,402	-23	-3,498
724,045	-22,5	-3,499
735,072	-6	-1,671
745,662	-7,5	-1,934
756,311	-7,5	-1,885
766,865	-10	-2,137
777,436	-14,5	-2,557
787,989	-20,5	-2,98
798,561	-22,5	-3,364
809,132	-22	-3,499
819,691	-22	-3,497
830,251	-22	-3,492
840,828	-21	-3,467
851,448	-21	-3,456
862,031	-19,5	-3,424
872,596	-16	-3,212
883,12	-13	-2,935
893,649	-9	-2,393
904,179	-5,5	-1,947
915,158	-20,5	-3,446
925,741	-17	-3,324
936,265	-15	-3,086
946,824	-11,5	-2,769
957,336	-6,5	-2,186
967,853	-4,5	-1,722
978,436	-3,5	-1,58
989,014	-3,5	-1,559
999,562	-3	-1,375
1010,133	-2,5	-1,288
1020,68	-1,5	-0,985
1031,173	4	-0,283
1042,075	-4,5	-1,764
1052,604	-3,5	-1,494
1063,128	-1,5	-1,087
1073,681	-0,5	-0,836
1084,216	1	-0,543
1094,716	3,5	-0,001
1105,275	4	-0,002
1115,817	3,5	-0,006
1126,328	3,5	-0,024
1136,816	2	-0,174
1147,333	0	-0,585
1157,856	-0,5	-0,939
1168,374	-4	-1,604
1178,903	-7	-1,969
1189,462	-8,5	-2,137
1199,98	-12	-2,483
1210,521	-16	-2,731
1221,038	-21	-3,125
1231,586	-21	-3,375
1242,103	-21	-3,499
1252,651	-21	-3,496
1263,15	-20	-3,473
1273,632	-17	-3,35
1284,161	-12	-3,02
1294,678	-8,5	-2,594
1305,214	-7,5	-2,37
1315,695	-4,5	-1,834
1326,201	-3	-1,32
1336,718	-0,5	-0,857
1347,211	3,5	-0,284
1357,705	4	-0,001
1368,642	-3	-1,42
1379,136	-0,5	-0,804
1389,629	3,5	-0,332
1400,116	4	-0,001
1410,646	3,5	-0,004
1421,145	3,5	-0,025
1431,644	2	-0,137
1442,144	0	-0,556
1452,655	-1,5	-1,048
1463,209	-2,5	-1,22
1473,738	-4	-1,596
1484,243	-7,5	-2,024
1494,749	-12	-2,553
1505,224	-20	-3,289
1515,706	-20,5	-3,497
1526,222	-19,5	-3,482
1536,71	-17,5	-3,387
1547,216	-12,5	-3,02
1557,691	-7	-2,33
1568,209	-5	-1,958
1578,726	-3	-1,496
1589,213	-0,5	-0,776
1599,713	3,5	-0,246
1610,194	4	-0,002
1620,688	4	-0,012
1631,187	2,5	-0,145
1641,693	1	-0,337
1652,198	-0,5	-0,875
1662,655	-5,5	-1,845
1673,587	1,5	-0,208
1684,026	-1,5	-1,133
1694,465	-7	-2,108
1704,917	-18,5	-2,944
1715,44	-19,5	-3,343
1725,946	-19,5	-3,498
1736,421	-19	-3,48
1746,885	-12,5	-3,226
1757,348	-9	-2,73
1767,775	-3	-1,64
1778,245	0	-0,751
1788,702	4	-0,001
1799,129	4	-0,014
1809,593	2	-0,152
1820,056	0	-0,632
1830,496	-3	-1,452
1840,923	-10	-2,339
1851,351	-19,5	-3,228
1861,754	-19,5	-3,496
1872,206	-19,5	-3,477
1882,675	-16,5	-3,39
1893,132	-11,5	-2,98
1903,572	-6,5	-2,376
1914,053	-4	-1,919
1924,474	-1,5	-1,13
1934,884	2,5	-0,409
1945,383	3,5	-0,042
1955,811	4	-0,002
1966,22	4	-0,021
1976,659	3	-0,108
1987,099	0	-0,572
1997,532	-2	-1,279
2007,942	-6	-2,01
2018,357	-14	-2,824
2028,802	-19,5	-3,5
2039,242	-19,5	-3,495
2049,681	-19	-3,472
2060,115	-15	-3,276
2070,524	-7,5	-2,539
2080,951	-4,5	-1,886
2091,385	-2,5	-1,36
2101,806	0	-0,743
2112,228	3,5	-0,104
2122,655	4	-0,002
2133,058	3,5	-0,03
2143,468	2	-0,215
2153,871	-0,5	-1,01
2164,293	-5	-1,926
2174,727	-11	-2,607
2185,201	-19	-3,149
2195,677	-19,5	-3,499
2206,11	-18,5	-3,488
2216,502	-12	-3,116
2226,947	-6	-2,388
2237,392	-3,5	-1,911
2247,826	-1,5	-1,134
2258,271	2	-0,549
2268,705	4	-0,001
2279,138	3,5	-0,005
2289,547	3	-0,06
2299,957	0	-0,654
2310,39	-2,5	-1,384
2320,818	-7,5	-2,254
2331,263	-17	-3,046
2341,714	-19	-3,499
2352,154	-18,5	-3,476
2362,557	-11	-3,055
2372,991	-5,5	-2,352
2383,394	-3	-1,575
2393,81	3	-0,581
2404,237	4	-0,001
2414,664	4	-0,014
2425,08	1,5	-0,19
2435,477	-0,5	-1,054
2445,91	-4,5	-1,964
2456,338	-10,5	-2,643
2466,735	-17,5	-3,5
2477,169	-17,5	-3,492
2487,656	-15,5	-3,449
2498,072	-9	-2,923
2508,505	-4,5	-2,162
2518,92	-1,5	-1,343
2529,33	1,5	-0,542
2539,739	4	-0,001
2550,155	4	-0,006
2560,588	3,5	-0,026
2571,046	3	-0,101
2581,503	1	-0,43
2591,966	0	-0,95
2602,388	-3,5	-1,824
2612,827	-8	-2,475
2623,23	-16	-3,432
2633,646	-15,5	-3,492
2644,085	-11,5	-3,296
2654,507	-5	-2,443
2664,922	-2,5	-1,636
2675,355	-0,5	-0,865
2685,765	4	-0,019
2696,174	4	-0,005
2706,59	2,5	-0,136
2717,017	0	-0,854
2727,426	-3	-1,826
2737,848	-8	-2,625
2748,287	-13	-3,5
2758,697	-12,5	-3,485
2769,118	-8	-3,18
2779,552	-3,5	-2,296
2789,979	-1	-1,235
2800,418	3,5	-0,349
2810,816	4	-0,005
2821,231	2	-0,181
2831,658	0	-0,994
2842,08	-2	-1,841
2852,495	-8	-2,767
2862,911	-12	-3,499
2873,338	-12	-3,483
2883,747	-6	-3,026
2894,193	-3	-2,183
2904,596	-0,5	-1,113
2915	3,5	-0,119
2925,409	4	-0,004
2935,807	3	-0,067
2946,246	0,5	-0,558
2956,667	-0,5	-1,422
2967,107	-3,5	-2,264
2977,546	-9,5	-3,039
2987,968	-11	-3,496
2998,419	-10,5	-3,47
3008,816	-5	-2,894
3019,22	-1,5	-1,722
3029,641	1	-0,673
3040,087	4	-0,001
3050,508	3,5	-0,011
3060,953	2,5	-0,108
3071,381	0	-1,084
3081,808	-2	-2,174
3092,2	-10,5	-3,499
3102,621	-10,5	-3,485
3113,018	-6	-3,186
3123,47	-3	-2,283
3133,897	-1	-1,3
3144,307	3,5	-0,29
3154,716	4	-0,005
3165,113	1,5	-0,201
3175,547	0	-1,355
3180,461	4	0