Folder: Data-filter--cyclical-tests-BEPE-project-/ensaios_Ciclicos/_20perc/_2gap/entrada

Note: README.md
# Data filter (cyclical tests BEPE project)
python aplication to treat data get by fatigue testing machine

File: _2.txt
Time (s)	Load (N)	Displacement (mm)
0	0	-0,051
11,011	-10	-1,643
22,008	-23	-3,176
32,988	-31	-3,496
44,357	-4,5	-0,904
55,174	0	-0,158
66,465	-5,5	-1,276
77,301	-12	-2,131
88,04	-15,5	-2,55
99,008	-28	-3,475
109,753	-28	-3,486
120,871	-20	-2,556
131,7	-11,5	-1,735
142,649	0	-0,214
153,25	-1	-0,414
163,798	-5,5	-1,176
174,382	-9	-1,623
185,205	-2,5	-0,827
195,764	-7	-1,43
206,263	-17	-2,344
217,057	-11	-1,832
227,43	-27	-3,282
237,72	-24	-3,404
248,525	-26	-3,488
258,857	-13,5	-2,581
269,272	-4,5	-1,342
279,603	3,5	-0,002
289,977	2	-0,118
300,084	-22	-2,878
310,76	-20	-2,751
359,327	-18	-3,182
369,418	3,5	-0,052
379,545	-2	-0,847
389,661	-25	-3,499
438,235	-14,5	-2,777
448,278	3,5	-0,001
458,339	-5,5	-1,443
468,4	-24,5	-3,488
516,662	3,5	0
526,669	-5,5	-1,495
536,616	-22	-3,452
546,6	2,5	-0,364
556,601	-3	-1,264
566,561	-24	-3,483
576,478	1,5	-0,495
623,576	-3	-1,194
633,859	4	-0,004
643,74	-18,5	-2,77
653,658	-8	-2,268
663,533	2,5	-0,106
673,445	-23,5	-3,499
683,32	-1,5	-1,016
693,214	-2,5	-1,164
740,335	0,5	-0,357
750,174	-23,5	-3,495
759,96	3,5	-0,103
769,721	-15	-2,528
779,537	-5,5	-1,885
789,304	-1	-0,835
799,126	-21	-3,417
808,941	4	-0,005
818,72	-23	-3,457
828,542	-2,5	-1,118
838,321	-4,5	-1,51
848,101	-14,5	-2,946
857,868	3,5	-0,049
867,672	-23	-3,498
877,49	1,5	-0,514
887,284	-7,5	-1,885
897,053	-9	-2,436
906,807	0,5	-0,345
916,575	-22,5	-3,478
999,7	-15,5	-3,189
1009,497	4	-0,019
1019,241	-22,5	-3,498
1028,996	4	-0,07
1038,728	-17,5	-2,902
1048,465	-2,5	-1,128
1058,185	-9	-2,047
1068,342	-22	-3,489
1078,134	4	0
1087,901	-19,5	-2,924
1097,698	-3	-1,425
1107,424	-5	-1,622
1117,161	-10	-2,602
1126,911	1,5	-0,213
1136,69	-22	-3,479
1146,434	4	-0,003
1156,183	-22	-3,5
1165,969	0	-0,74
1175,712	-9	-2,057
1185,473	-6	-2,164
1195,247	0	-0,648
1204,99	-17	-3,334
1214,752	3,5	-0,019
1224,471	-22	-3,496
1234,197	4	-0,001
1243,94	-21,5	-3,189
1253,665	-1,5	-0,961
1263,397	-6,5	-1,896
1273,14	-6,5	-2,21
1282,86	-0,5	-0,768
1292,645	-19	-3,408
1302,389	4	-0,01
1312,15	-22	-3,499
1321,894	2,5	-0,444
1331,643	-10,5	-2,272
1341,386	-4,5	-1,866
1351,124	-1,5	-1,047
1360,867	-15	-3,197
1370,611	3,5	-0,042
1380,342	-21,5	-3,49
1390,062	4	-0,002
1399,763	-21,5	-3,489
1409,477	2,5	-0,498
1419,226	-10,5	-2,365
1428,963	-4,5	-1,758
1438,671	-1,5	-1,082
1448,385	-14,5	-3,097
1458,146	4	-0,031
1467,877	-21	-3,496
1477,615	4	-0,001
1487,364	-19,5	-3,02
1497,09	-2	-1,141
1506,803	-5	-1,755
1516,535	-7	-2,354
1526,26	0,5	-0,549
1535,985	-19	-3,412
1545,723	4	-0,014
1555,454	-21	-3,497
1565,162	4	-0,001
1574,887	-21	-3,197
1584,625	-1,5	-1,088
1594,344	-5,5	-1,748
1604,045	-5,5	-2,125
1613,747	-0,5	-0,793
1623,46	-14	-3,178
1633,156	1,5	-0,198
1642,881	-20,5	-3,466
1652,589	4	-0,009
1662,314	-21	-3,499
1672,046	4	-0,279
1681,753	-15	-2,767
1691,455	-2	-1,283
1701,144	-6	-1,812
1710,846	-7	-2,291
1720,589	0,5	-0,533
1730,302	-17,5	-3,398
1740,094	4	-0,008
1749,795	-21	-3,498
1759,533	3,5	-0,083
1769,204	-19	-3,074
1778,893	-0,5	-0,862
1788,607	-7	-2,037
1798,297	-5	-2,128
1807,992	-1	-0,936
1817,669	-12	-2,972
1827,383	2,5	-0,122
1837,066	-19	-3,43
1846,762	4	-0,022
1856,457	-21	-3,496
1866,122	4	-0,002
1875,8	-21	-3,5
1885,465	3,5	-0,308
1895,149	-16,5	-2,899
1904,79	0	-0,739
1914,468	-10,5	-2,415
1924,175	-3	-1,557
1933,883	-3	-1,447
1943,572	-8	-2,47
1953,274	0	-0,644
1962,969	-15	-3,237
1972,623	3	-0,096
1982,288	-20	-3,463
1991,971	4	-0,014
2001,619	-20,5	-3,489
2011,278	4	-0,005
2020,944	-20	-3,497
2030,627	4	-0,001
2040,323	-20	-3,433
2049,994	3	-0,373
2059,678	-15	-2,761
2069,379	-1	-1,124
2079,039	-8	-2,136
2088,758	-4,5	-2,093
2098,411	-1,5	-1,181
2108,083	-6,5	-2,379
2117,772	0	-0,705
2127,474	-14,5	-3,32
2137,145	3	-0,075
2146,805	-19	-3,472
2156,494	4	-0,008
2166,165	-19,5	-3,497
2175,849	4	-0,001
2185,532	-19,5	-3,5
2195,198	3,5	-0,331
2204,899	-12	-2,627
2214,571	-1,5	-1,22
2224,272	-5,5	-1,968
2233,926	-3	-1,708
2243,579	-3,5	-1,651
2253,251	-4,5	-2,026
2262,946	-1,5	-1,172
2272,611	-8	-2,612
2282,265	0	-0,64
2291,936	-12	-3,131
2301,584	1,5	-0,241
2311,261	-17,5	-3,434
2320,915	3,5	-0,023
2330,574	-19,5	-3,49
2340,234	4	-0,003
2349,941	-19,5	-3,499
2359,606	4	0
2369,266	-19	-3,37
2378,913	3,5	-0,288
2388,573	-15	-2,902
2398,232	-0,5	-0,896
2407,904	-7	-2,235
2417,569	-2,5	-1,549
2427,216	-3,5	-1,707
2436,87	-5	-2,134
2446,517	-0,5	-1,112
2456,171	-7	-2,556
2465,842	0	-0,805
2475,508	-9	-2,847
2485,209	1,5	-0,224
2494,881	-16,5	-3,421
2504,564	4	-0,032
2514,242	-18	-3,486
2523,907	4	-0,006
2533,554	-18	-3,497
2543,214	4	-0,001
2552,885	-17	-3,5
2562,551	3,5	-0,387
2572,21	-11	-2,776
2581,888	-0,5	-1,072
2591,547	-6	-2,186
2601,213	-2	-1,582
2610,872	-3	-1,768
2620,537	-4	-2,159
2630,203	-0,5	-1,104
2639,886	-6	-2,671
2649,54	0,5	-0,673
2659,181	-9	-3,104
2668,853	2,5	-0,143
2678,512	-12	-3,407
2688,178	4	-0,024
2697,825	-14	-3,483
2707,496	4	-0,005
2717,15	-14,5	-3,497
2726,803	4	-0,002
2736,463	-13,5	-3,499
2746,164	4	-0,141
2755,818	-12	-3,175
2765,477	0,5	-0,687
2775,161	-4,5	-2,452
2784,85	-1	-1,399
2794,54	-0,5	-1,648
2804,175	-2	-1,87
2813,816	0	-1,512
2823,476	-3	-2,188
2833,123	0	-1,148
2842,819	-4,5	-2,741
2852,484	1,5	-0,501
2862,138	-7,5	-3,212
2871,797	3	-0,082
2881,481	-11,5	-3,479
2891,17	4	-0,006
2900,847	-12	-3,495
2910,513	4	-0,003
2920,19	-11,5	-3,499
2929,88	4	-0,07
2939,527	-11,5	-3,347
2949,223	3	-0,469
2958,882	-7,5	-2,882
2968,536	1	-0,663
2978,195	-4,5	-2,608
2987,842	0	-1,05
2997,484	-2	-2,227
3007,143	-1	-1,486
3016,809	0	-1,697
3026,48	-1,5	-1,99
3036,152	0,5	-1,146
3045,805	-3	-2,605
3055,471	1,5	-0,598
3065,118	-4	-2,975
3074,789	2	-0,204
3084,503	-9,5	-3,466
3094,21	4	-0,008
3103,876	-10	-3,492
3113,565	4	-0,003
3123,231	-10	-3,499
3132,914	4	-0,001
3142,598	-10	-3,315
3152,245	3,5	-0,435
3161,892	-5,5	-2,852
3171,552	0	-0,843
3181,199	-3,5	-2,562
3190,865	0	-1,08
3200,518	-2,5	-2,403
3203,488	4	-0,001

File: _3.txt
Time (s)	Load (N)	Displacement (mm)
42,21	-5,5	-0,869
53,321	3	-0,002
64,87	-29	-3,486
75,927	-23	-2,728
87,285	3	-0,009
98,012	3	-0,002
108,823	2,5	-0,437
119,995	-18,5	-2,883
130,728	-22	-3,268
141,623	-27,5	-3,495
152,825	-10,5	-1,725
163,306	-19	-2,506
174,31	-1,5	-0,725
184,899	-4	-1,015
195,488	-5	-1,189
284,841	-8,5	-1,728
295,191	-25,5	-3,269
305,858	-25,5	-3,128
316,303	-25,5	-3,497
365,099	-23	-3,418
375,274	-3	-1,196
385,443	3,5	-0,023
395,703	-7	-1,593
405,896	-25	-3,499
416,126	-15,5	-2,995
426,349	-1,5	-0,966
436,968	0	-0,832
447,048	0,5	-0,239
457,169	-18	-2,597
467,333	-24	-3,476
515,486	1,5	-0,502
525,517	-1,5	-0,848
535,513	-24	-3,498
545,58	-7	-2,022
555,618	4	-0,014
565,607	-15,5	-2,586
575,639	-19	-3,325
585,634	4	-0,09
596,019	4	-0,022
605,991	-19	-2,83
615,944	-12	-2,624
625,94	4	-0,002
635,917	-10,5	-2,072
645,895	-19,5	-3,376
655,806	4	-0,001
665,783	-7,5	-1,804
675,731	-20	-3,436
685,69	4	-0,279
695,596	-6	-1,66
705,483	-21,5	-3,433
715,371	4	-0,009
725,264	-11,5	-2,124
735,176	-15,5	-3,052
781,805	-6,5	-2,043
791,668	2	-0,112
801,55	-23	-3,499
811,443	-4	-1,516
821,301	-0,5	-0,67
831,188	-22,5	-3,493
841,052	3	-0,421
850,933	-6	-1,691
860,808	-16,5	-3,232
870,63	4	-0,007
880,505	-21	-3,093
890,777	-21	-3,456
900,628	4	-0,001
910,467	-14,5	-2,563
920,343	-10,5	-2,587
930,194	4	-0,01
940,064	-21	-3,074
949,939	-6,5	-2,088
959,791	1,5	-0,214
969,588	-22	-3,492
979,428	4	-0,222
989,255	-10	-2,11
999,106	-12	-2,844
1008,94	4	-0,027
1018,755	-22	-3,5
1028,601	-3,5	-1,362
1038,416	-2	-1,072
1048,268	-20	-3,432
1058,083	4	-0,004
1067,958	-15	-2,718
1077,828	-8	-2,37
1087,733	4	-0,023
1097,567	-22	-3,5
1107,382	-2	-1,086
1117,192	-3	-1,387
1127,025	-16,5	-3,316
1136,859	4	-0,006
1146,698	-21,5	-3,188
1156,513	-3,5	-1,514
1166,359	-1	-0,808
1176,162	-21	-3,47
1185,978	4	-0,001
1195,811	-12,5	-2,473
1205,615	-7	-2,253
1215,449	3	-0,101
1225,275	-21,5	-3,498
1235,091	3	-0,378
1244,912	-9	-2,158
1254,746	-10	-2,623
1264,579	3,5	-0,04
1274,395	-21,5	-3,499
1284,192	0,5	-0,756
1294,038	-3	-1,362
1303,859	-17	-3,343
1313,698	4	-0,008
1323,508	-21	-3,476
1333,317	-2,5	-1,261
1343,127	-3	-1,33
1352,936	-15	-3,235
1362,752	3,5	-0,037
1372,543	-21	-3,498
1382,352	2	-0,49
1392,174	-6,5	-1,929
1402,001	-10,5	-2,741
1411,811	3	-0,086
1421,627	-21	-3,498
1431,424	3,5	-0,399
1441,239	-9,5	-2,2
1451,037	-6	-2,145
1460,853	0	-0,564
1470,691	-20	-3,476
1480,531	4	-0,001
1490,316	-20,5	-3,079
1500,144	-3	-1,422
1509,929	-3,5	-1,528
1519,769	-14,5	-3,195
1529,626	4	-0,011
1539,484	-21	-3,479
1549,305	-2	-1,057
1559,115	-4	-1,528
1568,918	-12,5	-3,058
1578,721	3,5	-0,05
1588,531	-21	-3,498
1598,34	0,5	-0,664
1608,126	-8,5	-2,218
1617,923	-7,5	-2,41
1627,691	1,5	-0,212
1637,47	-20,5	-3,489
1647,297	4	-0,006
1657,131	-10,5	-2,372
1666,952	-6,5	-2,306
1676,732	1,5	-0,22
1686,517	-20,5	-3,492
1696,309	4	0
1706,112	-12	-2,599
1715,951	-6	-2,142
1725,755	0,5	-0,416
1735,576	-20	-3,488
1745,32	4	-0,001
1755,081	-20	-3,121
1765,167	-12	-3,004
1774,946	3,5	-0,042
1784,725	-20	-3,498
1794,524	3,5	-0,471
1804,272	-9	-2,255
1814,046	-6	-2,278
1823,819	1	-0,307
1833,575	-19,5	-3,487
1843,324	4	-0,001
1853,08	-18,5	-3,044
1862,823	-2,5	-1,366
1872,999	4	-0,018
1882,772	-19,5	-3,499
1892,509	3	-0,433
1902,229	-11,5	-2,517
1911,966	-4,5	-1,906
1921,71	-0,5	-0,771
1931,429	-15,5	-3,368
1941,161	4	-0,019
1950,916	-19,5	-3,498
1960,755	0	-0,73
1970,499	-7	-2,123
1980,224	-5,5	-2,252
1989,974	1	-0,434
1999,765	-19,5	-3,486
2009,497	4	-0,002
2019,246	-19	-3,144
2028,996	-2	-1,249
2038,745	-3	-1,562
2048,504	-10	-2,891
2058,232	3,5	-0,08
2067,957	-19	-3,492
2077,701	4	0
2087,486	-11	-2,573
2097,254	-4,5	-1,977
2106,997	0	-0,653
2116,746	-18	-3,436
2126,52	4,5	-0,004
2136,264	-19	-3,414
2146,014	-1,5	-1,066
2155,744	-3,5	-1,751
2165,47	-7	-2,473
2175,243	3	-0,126
2184,963	-18,5	-3,489
2194,676	4	-0,002
2204,449	-18,5	-3,24
2214,211	-1,5	-1,188
2223,918	-3,5	-1,715
2233,662	-7,5	-2,507
2243,399	2	-0,201
2253,209	-18,5	-3,495
2262,922	4	-0,001
2272,66	-17	-3,048
2282,409	-1,5	-1,222
2292,146	-3	-1,585
2301,884	-7	-2,577
2311,621	1,5	-0,254
2321,359	-18	-3,483
2331,096	4	-0,002
2340,882	-15	-2,953
2350,637	-2	-1,39
2360,375	-3	-1,55
2370,106	-6	-2,528
2379,825	1	-0,338
2389,545	-16,5	-3,457
2399,324	4,5	-0,003
2409,056	-18	-3,5
2418,769	3,5	-0,364
2428,531	-10,5	-2,625
2438,274	-2	-1,456
2448,018	-3	-1,641
2457,755	-6	-2,52
2467,54	1,5	-0,201
2477,26	-15,5	-3,458
2486,979	4	-0,013
2496,717	-17	-3,498
2506,46	4	-0,012
2516,21	-12,5	-2,876
2525,941	-1,5	-1,244
2535,667	-1,5	-1,447
2545,422	-9,5	-3,016
2555,153	3,5	-0,054
2564,903	-15,5	-3,496
2574,64	4	0
2584,366	-15	-3,134
2594,091	0	-0,857
2603,805	-6	-2,294
2613,524	-2,5	-1,656
2623,244	-1	-1,418
2632,975	-6,5	-2,714
2642,695	1,5	-0,338
2652,408	-13,5	-3,473
2662,175	4,5	-0,001
2671,913	-12	-3,099
2681,65	-1,5	-1,276
2691,37	-0,5	-1,468
2701,143	-7,5	-3,093
2710,917	4	-0,037
2720,648	-13	-3,496
2730,392	4	-0,036
2740,123	-8,5	-2,787
2749,854	-1,5	-1,457
2759,61	0	-1,175
2769,365	-9	-3,318
2779,097	4	-0,02
2788,852	-12,5	-3,498
2798,62	4	-0,399
2808,351	-6,5	-2,604
2818,076	-1,5	-1,483
2827,808	-0,5	-1,408
2837,533	-5	-2,732
2847,265	2	-0,12
2857,062	-12,5	-3,494
2866,794	4	-0,001
2876,525	-12	-3,191
2886,269	0	-0,96
2896,006	-2	-1,911
2905,755	-3,5	-2,401
2915,499	1,5	-0,335
2925,224	-12	-3,461
2934,95	4	-0,008
2944,675	-12,5	-3,499
2954,395	3,5	-0,361
2964,186	-3	-2,154
2973,93	-2,5	-2,123
2983,655	0,5	-0,958
2993,392	-8,5	-3,328
3003,13	4	-0,023
3012,849	-11,5	-3,497
3022,617	4	-0,242
3032,366	-5	-2,561
3042,104	-1,5	-1,772
3051,865	0,5	-0,916
3061,579	-6	-3,126
3071,304	2,5	-0,099
3081,011	-10,5	-3,478
3090,773	4	-0,002
3100,522	-10,5	-3,328
3110,296	-0,5	-1,106
3120,039	-0,5	-1,743
3129,789	-3	-2,586
3139,508	1,5	-0,319
3149,258	-9,5	-3,47
3158,989	4	-0,006
3168,726	-10	-3,5
3178,494	0	-1,001
3188,255	-0,5	-1,821
3197,447	4	-0,001