Folder: Data-filter--cyclical-tests-BEPE-project-/Cycling_tests/_50perc/_1gap/entrada

Note: README.md
# Data filter (cyclical tests BEPE project)
python aplication to treat data get by fatigue testing machine

File: _1.txt
Time (s)	Load (N)	Displacement (mm)
0	0	-0,035
9,845	-9	-1,69
19,468	-12	-2,64
29,087	-0,5	-0,232
38,733	-18	-3,469
48,38	1,5	-0,003
58,058	-18	-3,307
67,735	-5,5	-1,782
77,383	-2,5	-0,831
87,054	-16,5	-3,441
96,732	1,5	-0,001
106,404	-12,5	-2,625
116,081	-7,5	-2,31
125,77	1	-0,056
135,448	-17	-3,496
145,131	0,5	-0,48
154,826	-7	-1,878
164,54	-10,5	-2,876
174,247	1	-0,042
183,943	-17	-3,498
193,62	-1,5	-0,801
203,316	-5	-1,568
213,011	-10,5	-2,899
222,695	0,5	-0,082
232,396	-16,5	-3,494
242,067	1,5	0
251,757	-13,5	-2,954
297,726	-3	-1,502
307,422	-6,5	-1,889
317,117	-5	-2,069
326,807	-3,5	-1,282
336,49	-8	-2,579
346,167	0	-0,481
355,857	-15	-3,472
365,54	1,5	-0,003
375,206	-15	-3,499
384,895	1,5	-0,212
394,561	-10,5	-2,565
404,226	-3,5	-1,669
413,898	-1,5	-0,81
423,575	-12	-3,313
433,241	1	-0,07
479,156	-15	-3,498
488,821	2	-0,198
498,487	-13	-2,987
508,158	0	-0,612
517,842	-10	-2,584
527,501	-3	-1,603
537,161	-4,5	-1,775
546,808	-4,5	-2,166
556,479	-2,5	-1,254
566,139	-8,5	-2,853
575,81	0	-0,407
585,488	-12,5	-3,378
595,165	1	-0,084
604,832	-14	-3,477
614,484	1,5	-0,019
624,156	-14,5	-3,496
633,809	1,5	-0,003
643,474	-14,5	-3,498
653,152	0	-0,557
662,817	-5	-1,945
672,483	-6,5	-2,581
682,148	0,5	-0,182
691,796	-14,5	-3,486
701,455	1,5	-0,004
711,121	-14,5	-3,499
720,774	1,5	-0,001
730,428	-14,5	-3,499
740,075	2	-0,001
749,752	-14,5	-3,499
759,418	1,5	-0,259
769,077	-14,5	-3,499
778,737	1,5	0
788,384	-14,5	-3,5
798,038	1,5	-0,142
807,715	-14	-3,14
817,393	-0,5	-0,888
827,058	-10,5	-2,774
836,723	-0,5	-0,842
846,377	-9,5	-2,636
856,03	-1,5	-1,175
865,684	-7,5	-2,334
875,343	-2,5	-1,517
885,003	-4,5	-1,744
894,668	-4,5	-2,154
904,334	-2,5	-1,414
913,999	-6	-2,544
923,652	-0,5	-0,791
933,303	-8,5	-2,98
942,953	0	-0,282
952,607	-11,5	-3,389
962,26	1,5	-0,056
971,914	-13,5	-3,482
981,579	1,5	-0,007
991,227	-13,5	-3,496
1000,886	2	0
1010,534	-13	-3,126
1020,199	0	-0,63
1029,87	-7	-2,423
1039,536	-3,5	-1,96
1049,189	-1,5	-1,114
1058,843	-8,5	-3,116
1068,496	1	-0,096
1078,144	-13,5	-3,478
1087,797	1,5	-0,007
1097,439	-13,5	-3,499
1107,086	0,5	-0,497
1116,745	-8	-2,558
1126,399	-3	-1,679
1136,052	-2	-1,325
1145,706	-7,5	-2,826
1155,347	1	-0,145
1201,197	-11	-3,006
1210,844	-2	-1,342
1220,515	-2,5	-1,465
1230,175	-7	-2,755
1239,828	0	-0,484
1249,464	-12,5	-3,452
1259,117	2	-0,009
1268,789	-13,5	-3,5
1278,448	-0,5	-0,858
1288,104	-5	-2,066
1297,743	-4	-2,058
1307,385	-1	-0,992
1317,032	-9	-3,21
1326,691	1,5	-0,065
1336,339	-13	-3,494
1345,986	1,5	-0,001
1355,628	-13	-3,475
1365,287	0	-0,655
1374,941	-5,5	-2,094
1384,576	-3	-1,872
1394,23	-2	-1,298
1403,877	-5,5	-2,67
1413,518	-1	-0,804
1423,16	-8,5	-3,074
1432,801	0	-0,352
1442,437	-10,5	-3,397
1452,078	1,5	-0,034
1461,726	-13	-3,492
1471,379	1,5	-0,006
1481,027	-13	-3,496
1526,846	2	-0,002
1536,487	-13	-3,499
1546,129	1,5	-0,001
1555,776	-12	-3,076
1565,436	-1,5	-1,302
1575,083	-4	-1,834
1584,731	-4	-2,15
1594,372	-0,5	-0,974
1604,008	-7,5	-2,992
1613,673	0	-0,315
1623,32	-11,5	-3,426
1632,968	1,5	-0,059
1642,609	-12	-3,458
1652,263	2	-0,022
1661,904	-13	-3,495
1671,558	2	-0,001
1681,217	-12,5	-3,5
1690,853	-0,5	-0,861
1700,518	-4,5	-2,014
1710,178	-3,5	-2,173
1719,825	-0,5	-0,92
1729,472	-7,5	-3,091
1739,12	1,5	-0,061
1748,749	-12,5	-3,493
1758,409	2	0
1768,044	-10	-2,953
1777,692	0	-0,621
1787,333	-9,5	-2,79
1796,987	-2	-1,506
1806,628	-2,5	-1,565
1816,269	-4	-2,331
1825,929	0	-0,32
1835,57	-12	-3,456
1845,206	1,5	-0,011
1854,853	-12,5	-3,498
1864,489	1,5	-0,318
1874,13	-10	-2,81
1883,772	-1,5	-1,341
1893,413	-2,5	-1,431
1903,055	-5,5	-2,692
1912,708	0,5	-0,13
1958,521	-12,5	-3,395
1968,163	0	-0,705
1977,816	-4	-1,906
1987,452	-5	-2,555
1997,087	0	-0,282
2006,741	-11	-3,428
2016,37	1,5	-0,037
2026,011	-12	-3,486
2035,653	2	-0,005
2045,288	-12,5	-3,498
2054,93	1,5	-0,102
2064,577	-7	-2,499
2074,213	-2,5	-1,816
2083,86	0	-0,718
2093,49	-10,5	-3,411
2103,119	2	-0,007
2112,761	-12	-3,499
2122,402	0	-0,761
2132,037	-3	-1,845
2141,679	-6	-2,778
2151,32	1	-0,091
2160,974	-12	-3,49
2170,609	1,5	-0,002
2216,417	-5,5	-2,366
2226,052	-3	-1,951
2235,705	0	-0,538
2245,341	-9,5	-3,372
2254,988	2	-0,012
2264,624	-11,5	-3,483
2274,259	-0,5	-0,948
2283,901	-2,5	-1,691
2293,548	-5,5	-2,696
2303,184	1	-0,12
2312,831	-11,5	-3,482
2322,473	2	-0,007
2332,102	-11,5	-3,498
2341,743	1,5	-0,001
2351,379	-11,5	-3,274
2361,026	-0,5	-1,017
2370,662	-4,5	-2,232
2380,309	-1,5	-1,67
2426,087	-1	-1,218
2435,728	-6,5	-3,06
2445,382	1	-0,098
2455,023	-10,5	-3,472
2464,664	1,5	-0,019
2474,3	-11	-3,493
2483,953	2	0
2493,595	-9,5	-3,06
2503,236	-1	-1,16
2512,878	-3	-1,996
2522,513	-3,5	-2,278
2532,149	0	-0,662
2541,79	-10	-3,455
2551,449	2	-0,006
2561,085	-10,5	-3,499
2570,726	1,5	-0,512
2580,38	-3,5	-2,151
2590,021	-3	-2,232
2599,657	0	-0,448
2609,298	-8,5	-3,416
2618,946	2	-0,007
2628,587	-9,5	-3,482
2638,235	0	-0,76
2647,876	-3	-2,075
2657,511	-2,5	-1,932
2667,153	0	-0,861
2676,794	-8,5	-3,403
2686,442	2	-0,018
2696,083	-9,5	-3,494
2705,713	1,5	-0,001
2715,348	-8,5	-3,101
2724,978	-0,5	-1,07
2734,625	-1,5	-1,694
2744,272	-4	-2,732
2753,92	0,5	-0,346
2763,549	-9	-3,475
2773,197	2	0
2782,832	-6	-2,764
2792,468	-1	-1,518
2802,103	-1	-1,443
2811,745	-3,5	-2,702
2821,374	0,5	-0,422
2831,015	-7,5	-3,453
2840,657	2	-0,027
2850,298	-8	-3,498
2859,94	2	-0,254
2869,575	-4,5	-2,54
2879,211	-1,5	-1,772
2888,858	0	-0,96
2898,5	-6	-3,366
2908,153	1,5	-0,044
2917,783	-8	-3,491
2927,424	2	-0,003
2937,059	-8	-3,5
2946,707	0	-0,687
2956,342	-4	-2,465
2965,984	-1	-1,69
2975,619	-0,5	-1,416
2985,255	-3,5	-2,89
2994,896	1	-0,163
3004,538	-7,5	-3,478
3014,179	2	-0,003
3023,814	-7	-3,497
3033,45	0,5	-0,604
3079,227	0	-0,754
3088,887	-5	-3,354
3098,516	2	-0,022
3108,152	-7	-3,497
3117,793	1,5	-0,35
3127,429	-3	-2,574
3137,07	-1	-1,805
3146,699	0	-1,182
3156,335	-4	-3,188
3165,976	1,5	-0,063
3175,624	-6,5	-3,494
3178,954	2	0

File: _4.txt
Time (s)	Load (N)	Displacement (mm)
0	0	-0,035
3,341	-15	-2,64
6,874	-11,5	-2,631
10,156	-1,5	-0,351
13,402	-17,5	-3,416
16,678	1	-0,017
19,941	-19	-3,496
23,217	1	-0,001
26,495	-18,5	-3,382
29,755	0	-0,614
33,033	-13	-2,482
36,309	-5,5	-1,662
39,578	-7,5	-1,64
42,832	-8	-2,273
46,112	-2,5	-0,746
49,364	-14	-3,232
52,628	0	-0,184
55,891	-17	-3,458
59,161	1,5	-0,013
62,425	-17,5	-3,498
65,695	1,5	-0,007
68,99	-16,5	-3,128
72,258	-0,5	-0,668
75,528	-11	-2,354
78,822	-6	-1,876
82,11	-4	-1,186
85,398	-11,5	-2,958
88,662	0	-0,167
91,949	-16,5	-3,479
95,231	1,5	-0,004
98,513	-16,5	-3,499
101,789	0,5	-0,413
105,053	-13	-2,68
108,329	-3,5	-1,332
148,028	-2,5	-1,023
151,292	-9,5	-2,77
154,568	-1	-0,668
157,844	-13,5	-3,313
161,126	1,5	-0,064
164,395	-15,5	-3,492
167,683	1,5	-0,002
170,983	-15,5	-3,5
174,265	1,5	-0,341
177,547	-12	-2,659
180,81	-3	-1,371
184,094	-5	-1,675
187,362	-6,5	-2,285
190,644	-0,5	-0,595
193,926	-14	-3,396
197,195	1,5	-0,018
200,465	-15,5	-3,494
203,735	1,5	-0,001
207,005	-15,5	-3,348
210,287	-1	-0,825
213,562	-8	-2,118
216,826	-5,5	-1,965
220,108	-2	-0,94
223,366	-11,5	-3,146
226,642	1,5	-0,054
229,917	-15	-3,492
233,187	1,5	-0,001
236,457	-15	-3,413
239,739	-0,5	-0,733
243,021	-8,5	-2,216
246,297	-5	-2,007
249,578	-1,5	-0,82
252,848	-14	-3,384
256,1	1,5	-0,028
259,358	-15	-3,494
262,622	2	-0,001
265,891	-15	-3,286
269,173	-1,5	-0,946
272,443	-6	-1,884
275,713	-6	-2,22
278,983	-1	-0,774
282,252	-12,5	-3,283
285,522	1	-0,08
288,786	-15	-3,485
328,414	-4	-1,788
331,678	-3	-1,178
334,953	-9	-2,942
338,223	1	-0,131
341,487	-15	-3,48
344,769	2	-0,002
348,039	-15	-3,4
351,321	0	-0,77
354,596	-7,5	-2,156
357,863	-4,5	-1,959
361,136	-1,5	-0,92
364,406	-10	-3,099
367,682	1,5	-0,094
370,951	-15	-3,486
374,233	2	-0,002
377,509	-14,5	-3,461
380,773	0	-0,667
384,043	-9	-2,443
387,313	-3	-1,649
390,582	-3	-1,429
393,84	-8	-2,704
397,104	0	-0,419
400,368	-13	-3,408
403,632	2	-0,024
406,901	-14,5	-3,496
410,183	2	0
413,447	-14,5	-3,202
416,717	-1	-1,021
419,981	-6	-2,019
423,251	-4,5	-2,032
426,514	-1,5	-1,014
429,778	-9	-2,889
433,054	0	-0,184
436,324	-14	-3,468
439,582	2	-0,009
442,845	-14,5	-3,496
446,115	2	-0,001
449,384	-14,5	-3,231
452,643	0	-0,746
455,907	-8,5	-2,335
459,164	-3	-1,574
462,428	-3,5	-1,475
465,704	-7	-2,63
468,968	0	-0,509
472,226	-11,5	-3,32
548,025	-4	-1,976
551,283	-1	-0,914
554,541	-9,5	-3,124
557,799	1	-0,096
561,057	-14	-3,484
564,32	2	-0,003
567,584	-14	-3,499
570,842	2	-0,027
574,1	-13,5	-3,15
577,376	-0,5	-0,837
580,633	-7,5	-2,262
583,903	-3	-1,678
587,167	-2,5	-1,419
590,431	-5,5	-2,526
593,701	0	-0,553
596,952	-11	-3,299
600,216	1,5	-0,057
603,474	-13,5	-3,487
606,744	2,5	-0,003
610,002	-13,5	-3,499
613,266	2	-0,185
616,529	-11,5	-2,918
619,793	-1,5	-1,091
623,063	-6	-1,913
626,327	-4,5	-2,081
629,585	-1,5	-1,064
632,848	-9	-2,998
636,106	1	-0,146
639,37	-13,5	-3,467
642,64	2	-0,008
645,904	-13,5	-3,498
649,174	2	0
652,437	-13,5	-3,135
655,707	0	-0,698
658,971	-8,5	-2,517
662,235	-2,5	-1,397
665,499	-3,5	-1,678
668,762	-5,5	-2,229
672,02	-1	-0,819
675,296	-10	-3,231
678,554	1	-0,119
681,83	-13,5	-3,473
685,097	2	-0,008
688,345	-13,5	-3,498
691,609	2	-0,001
694,867	-13,5	-3,253
698,131	0	-0,729
701,401	-7,5	-2,365
704,664	-3	-1,623
707,922	-3	-1,517
711,186	-5,5	-2,361
714,444	-1	-0,858
717,702	-9,5	-3,084
720,959	1	-0,143
724,217	-13	-3,468
727,475	2	-0,008
730,739	-13,5	-3,498
733,991	1,5	-0,019
737,254	-12,5	-3,08
740,513	-1	-0,878
743,77	-6,5	-2,265
747,034	-3	-1,611
750,292	-4	-1,762
753,55	-5	-2,261
756,807	-1	-0,898
760,065	-9	-3
763,329	0	-0,311
766,599	-11	-3,307
769,857	1	-0,117
773,121	-12,5	-3,42
776,378	2	-0,041
779,636	-13,5	-3,479
782,906	2	-0,006
786,164	-13,5	-3,498
789,428	2	-0,001
792,679	-13,5	-3,5
795,937	1,5	-0,229
907,837	-6	-2,21
911,101	-3	-1,869
914,37	-2	-1,238
917,622	-5,5	-2,547
920,88	-0,5	-0,675
924,144	-10,5	-3,336
927,408	1,5	-0,058
930,665	-13	-3,484
933,917	2	-0,007
937,181	-13	-3,497
940,445	2	-0,001
943,697	-13	-3,5
946,955	2	-0,231
950,206	-12	-3,035
953,458	0	-0,67
956,716	-8	-2,444
959,974	-2	-1,336
963,232	-4,5	-1,878
966,489	-4	-2,042
969,759	-2	-1,153
973,011	-6	-2,626
976,263	-0,5	-0,739
979,527	-9,5	-3,196
982,784	1	-0,096
986,042	-12,5	-3,467
989,294	2	-0,012
992,558	-13,5	-3,496
995,816	2	-0,001
999,08	-13	-3,461
1002,337	1,5	-0,384
1005,595	-10,5	-2,808
1008,853	-1,5	-1,028
1012,099	-6,5	-2,276
1015,369	-3	-1,667
1018,632	-2,5	-1,431
1021,884	-5	-2,398
1025,142	-0,5	-0,79
1028,418	-9	-3,242
1031,67	1,5	-0,096
1034,928	-12,5	-3,477
1038,173	2	-0,009
1041,437	-13	-3,498
1044,701	2	-0,001
1047,953	-13	-3,332
1051,217	0,5	-0,626
1054,48	-7,5	-2,525
1057,738	-2	-1,438
1060,998	-4	-1,797
1064,26	-4,5	-2,123
1067,518	-1	-0,989
1070,769	-7,5	-2,955
1074,033	0,5	-0,16
1077,297	-12,5	-3,462
1080,555	2	-0,014
1083,813	-13	-3,496
1087,052	2	-0,002
1090,316	-13	-3,499
1093,568	2	-0,165
1096,826	-11	-2,96
1100,084	-0,5	-0,855
1103,342	-7	-2,439
1106,605	-2	-1,438
1109,863	-4,5	-1,817
1113,115	-4,5	-2,165
1116,373	-1	-1,018
1119,625	-7	-2,784
1122,882	0	-0,499
1126,14	-10,5	-3,384
1129,404	1,5	-0,054
1132,656	-12,5	-3,482
1135,914	2	-0,004
1139,173	-12,5	-3,499
1142,429	1,5	-0,415
1145,681	-9,5	-2,768
1148,939	-1,5	-1,147
1152,191	-4,5	-1,996
1155,467	-3,5	-1,957
1158,718	-1,5	-1,203
1161,982	-7	-2,818
1165,234	0	-0,336
1168,498	-12	-3,431
1171,75	1,5	-0,04
1175,008	-12,5	-3,492
1178,259	2	-0,005
1181,517	-12,5	-3,498
1184,775	2	0
1188,021	-12,5	-3,4
1191,273	1,5	-0,364
1194,536	-9	-2,76
3150,431	2	-0,008
3153,688	-6	-3,498
3156,94	2	-0,072
3160,198	-4,5	-2,97
3163,45	0	-0,976
3166,714	-1,5	-2,17
3169,965	-1,5	-1,832
3173,217	-0,5	-1,358
3176,469	-3	-2,762
3179,721	0,5	-0,454
3182,229	2	-0,001

File: _5.txt
Time (s)	Load (N)	Displacement (mm)
0	0	-0,026
5,501	-16	-2,621
10,672	1	-0,102
15,832	-21	-3,495
21,07	0,5	-0,066
26,296	-14,5	-3,058
31,551	-4	-1,029
36,765	-5,5	-1,725
79,705	-5	-1,724
84,93	-11	-2,351
90,156	1	-0,468
95,256	-18	-3,496
100,463	1,5	-0,058
105,695	-13	-3,148
110,897	-2,5	-1,149
153,77	-0,5	-0,75
158,882	-4	-1,606
164,09	-11,5	-2,629
169,213	2	-0,001
174,481	-17	-3,496
179,641	1,5	-0,052
184,825	-10	-2,918
189,918	-5,5	-1,819
195,12	-1	-0,903
200,298	-16,5	-3,444
205,463	2,5	-0,008
210,707	-15	-3,457
215,861	0	-0,676
220,936	-3	-1,426
263,444	2,5	-0,002
268,497	-12	-3,258
273,655	-2,5	-1,331
278,821	-2	-1,118
284,005	-16	-3,305
289,159	2,5	-0,006
294,228	-9	-2,85
299,412	-3,5	-1,493
341,776	-15,5	-3,494
346,947	1	-0,13
352,017	-4,5	-2
357,183	-9,5	-2,492
362,384	2,5	-0,231
367,556	-15	-3,496
372,722	1,5	-0,106
377,779	-4	-1,949
382,945	-10	-2,596
388,112	2,5	-0,001
393,181	-14	-3,436
398,304	-1	-0,987
403,374	-1	-0,925
408,426	-15	-3,497
487,207	-1,5	-1,04
492,349	-15	-3,499
497,371	1,5	-0,104
502,506	-5,5	-2,35
507,654	-7	-2,275
512,682	2,5	-0,002
517,799	-13	-3,415
522,941	-1,5	-1,1
527,963	0	-0,689
533,111	-15	-3,498
538,258	2	-0,038
543,298	-5,5	-2,359
548,32	-12	-2,912
553,431	2,5	-0,004
558,441	-8	-2,777
636,959	0,5	-0,336
641,972	-2	-1,332
646,996	-14,5	-3,499
652,138	2	-0,067
657,154	-3	-1,845
662,271	-12	-2,956
667,287	2,5	-0,017
672,423	-8	-2,808
677,432	-9	-2,506
682,55	2,5	-0,001
687,566	-10,5	-3,254
692,593	-4	-1,96
697,603	2,5	-0,001
702,739	-13,5	-3,449
707,761	-2,5	-1,021
712,885	1	-0,556
717,996	-14	-3,496
723,048	0	-0,643
728,177	-3	-1,627
733,193	-14	-3,499
738,309	2,5	-0,038
816,654	-9,5	-3,197
821,8	-2,5	-1,526
826,794	2,5	-0,058
831,803	-10,5	-3,353
836,939	-1,5	-1,331
841,937	2,5	-0,182
847,061	-13,5	-3,489
852,082	-0,5	-0,948
857,206	-1,5	-1,294
862,21	-14	-3,497
867,327	1,5	-0,17
872,349	-2	-1,446
877,479	-13,5	-3,37
882,507	2	-0,071
887,534	-3	-1,84
892,568	-14	-3,5
897,566	1	-0,164
902,684	-4	-2,058
907,693	-13,5	-3,253
912,829	2,5	-0,006
917,833	-6,5	-2,769
922,836	-9,5	-2,662
927,96	2,5	-0,001
932,964	-8,5	-3,04
938,099	-2,5	-1,591
943,115	2,5	-0,2
948,245	-14	-3,495
953,261	-0,5	-0,893
958,264	0	-0,742
1036,752	-12	-3,131
1041,761	2	-0,044
1046,885	-4,5	-2,341
1051,883	-13	-3,109
1056,893	2,5	-0,027
1062,016	-6	-2,693
1067,038	-7,5	-2,476
1072,042	2,5	-0,003
1077,147	-9,5	-3,264
1082,151	-5	-2,16
1087,281	2,5	-0,084
1092,291	-12,5	-3,434
1097,294	-3	-1,758
1102,424	1,5	-0,5
1107,44	-13	-3,475
1112,461	-2	-1,449
1117,579	0,5	-0,596
1122,589	-13,5	-3,482
1127,587	-1	-1,293
1132,734	-1	-0,998
1137,762	-13,5	-3,496
1142,892	1	-0,18
1147,889	-2	-1,498
1152,905	-13,5	-3,499
1158,017	2	-0,052
1163,033	-3	-1,821
1168,054	-13	-3,492
1173,184	2,5	-0,018
1178,206	-4,5	-2,212
1183,203	-13	-3,257
1188,333	2,5	-0,01
1193,337	-4,5	-2,293
1198,347	-11	-3,01
1203,464	3	-0,005
1208,472	-5	-2,554
1213,466	-10,5	-2,946
1218,541	3	-0,006
1223,557	-4,5	-2,465
1228,561	-10,5	-2,981
1233,678	2,5	-0,005
1238,688	-5,5	-2,62
1243,704	-7,5	-2,616
1248,816	2,5	-0,002
1253,813	-7	-2,995
1550,61	2,5	-0,008
1555,608	-4	-2,314
1560,612	-11	-3,03
1565,706	2,5	-0,009
1570,709	-4,5	-2,378
1575,695	-11	-3,064
1580,693	2	-0,049
1585,822	-4	-2,353
1590,82	-11,5	-3,128
1595,836	2,5	-0,029
1600,84	-3	-2,013
1605,951	-9,5	-2,844
1610,943	2	-0,025
1615,947	-3	-2,039
1620,938	-12,5	-3,5
1626,062	2,5	-0,026
1631,06	-3,5	-2,02
1636,082	-12,5	-3,466
1641,193	2,5	-0,018
1646,197	-3	-1,987
1651,201	-12,5	-3,5
1656,21	1	-0,183
1661,214	-1,5	-1,36
1666,212	-12,5	-3,498
1671,204	0	-0,655
1676,207	0	-0,724
1681,337	-12,5	-3,498
1686,341	0	-0,549
1691,35	-1	-1,009
1696,354	-12,5	-3,493
1701,472	0,5	-0,378
1706,482	-1,5	-1,218
1711,479	-12,5	-3,497
1716,483	0	-0,732
1721,619	-1,5	-1,403
1726,604	-12,5	-3,496
1731,62	0	-0,806
1736,624	0	-0,696
1741,627	-12	-3,477
1746,625	-1,5	-1,434
1751,635	2,5	-0,018
1756,633	-10	-3,376
1761,763	-1,5	-1,285
1766,76	2,5	-0,132
1771,758	-10,5	-3,402
1776,767	-3,5	-1,956
1781,765	2,5	-0,002
1786,763	-7	-2,983
1791,761	-7,5	-2,598
1796,764	2,5	-0,008
1801,762	-4,5	-2,473
1806,784	-10	-2,924
1811,769	2,5	-0,029
1816,785	-3	-1,914
1821,777	-12,5	-3,499
1826,781	1	-0,262
1831,778	-1	-1,204
1836,776	-12,5	-3,496
1841,774	0	-0,849
1846,891	-1	-1,163
1851,889	-12,5	-3,497
1856,899	0	-0,746
1861,891	0,5	-0,649
1867,02	-12	-3,497
1872,012	0	-0,745
1877,022	0	-0,784
1882,007	-12	-3,482
1887,017	-1	-1,34
1892,027	2,5	-0,185
1897,031	-11	-3,43
1902,028	-3	-1,763
1907,02	2,5	-0,001
1912,034	-9,5	-3,344
1917,033	-4	-2,058
1922,025	2,5	-0,002
1927,029	-6	-2,9
1932,021	-7	-2,604
1937,147	2,5	-0,001
1942,142	-8	-3,104
1947,14	-6	-2,435
1952,125	2	-0,005
1957,249	-6,5	-2,986
1962,253	-5	-2,338
1967,251	2,5	-0,003
1972,254	-5,5	-2,729
1977,258	-7,5	-2,642
1982,4	2,5	-0,001
1987,397	-8,5	-3,184
1992,389	-5	-2,291
1997,393	2	-0,004
2002,403	-5	-2,613
2007,4	-10	-2,93
2012,398	2	-0,034
2017,396	-3	-1,956
2022,387	-12	-3,5
2027,493	2	-0,045
2032,503	-2,5	-1,754
2037,507	-12	-3,499
2042,498	0,5	-0,237
2047,49	-1,5	-1,247
2052,494	-12	-3,497
2057,491	0	-0,835
2062,483	1,5	-0,49
2067,481	-11,5	-3,471
2072,611	0	-0,856
2077,614	0	-0,645
2082,606	-12	-3,473
2087,616	-1,5	-1,5
2092,631	2,5	-0,041
2097,749	-12	-3,48
2102,747	-1	-1,182
2107,751	2,5	-0,238
2112,748	-11	-3,428
2117,752	-2,5	-1,829
2122,876	2	-0,308
2127,873	-11,5	-3,45
2132,865	-1,5	-1,535
2137,875	2,5	0
2142,879	-9	-3,326
2148,002	-1,5	-1,5
2153,012	2	0
2157,998	-9	-3,332
2162,995	-4	-2,097
2422,451	-1	-1,293
2427,442	2	-0,29
2432,44	-11	-3,451
2437,438	-2,5	-1,729
2442,435	2	-0,001
2447,421	-7	-3,014
2452,419	-7	-2,524
2457,417	2	-0,01
2462,42	-3,5	-2,195
2467,412	-12	-3,457
2472,41	1	-0,13
2477,407	-1,5	-1,402
2482,405	-12	-3,495
2487,535	0	-0,332
2492,527	-0,5	-0,865
3223,891	-9	-3,493
3228,882	0	-1,111
3233,808	2,5	-0,001