Folder: Data-filter--cyclical-tests-BEPE-project-/Cycling_tests/_newS/_2G60/entrada

Note: README.md
# Data filter (cyclical tests BEPE project)
python aplication to treat data get by fatigue testing machine

File: _1.txt
Time (s)	Load (N)	Displacement (mm)
0	-0,1	-0,036
10,535	1,42	0
20,998	1,68	-0,002
31,468	1,9	-0,002
41,949	2,08	-0,004
52,437	2,2	-0,004
62,93	2,3	-0,005
73,399	2,38	-0,006
83,887	2,46	-0,007
94,368	2,54	-0,006
104,862	2,58	-0,004
115,349	2,66	-0,004
125,854	2,7	-0,004
136,348	2,74	-0,005
146,853	2,78	-0,004
157,358	2,82	-0,006
167,876	2,86	-0,004
178,375	2,88	-0,001
188,881	2,88	-0,015
199,416	1,56	-0,596
209,921	0,18	-0,903
220,421	0,14	-0,926
230,932	-1	-1,118
241,426	-0,18	-1,03
251,949	-1,56	-1,244
262,478	-3,06	-1,682
273,002	-4,08	-1,983
283,525	-5,86	-2,39
294,049	-6,54	-2,483
304,566	-7,32	-2,556
315,077	-6,5	-2,574
325,607	-5,54	-2,336
336,136	-4,54	-2,11
346,666	-2,86	-1,664
357,195	-2,24	-1,569
367,706	-1,1	-1,266
378,242	0,02	-0,964
388,789	0,68	-0,837
399,313	0,44	-0,926
409,86	-1,16	-1,202
420,383	-1,36	-1,285
430,919	-1,56	-1,348
441,46	-1,76	-1,404
452,008	-2,66	-1,697
462,543	-2,66	-1,731
473,084	-3,28	-1,863
483,608	-3,66	-2,016
494,149	-6,34	-2,544
504,691	-10,02	-3,215
515,214	-13,22	-3,448
525,761	-13,74	-3,488
536,303	-13,78	-3,495
546,85	-13,74	-3,498
557,392	-13,7	-3,387
567,921	-12,92	-3,118
578,456	-9,58	-2,671
589,004	-6,8	-2,197
599,545	-5,84	-1,998
610,075	-4,22	-1,683
620,616	-3,18	-1,52
631,157	-2,22	-1,268
641,681	-1,22	-0,978
652,204	1,52	-0,359
662,764	3,32	-0,049
673,337	3,58	-0,005
683,888	3,56	-0,001
694,43	3,54	-0,085
704,983	1,56	-0,735
715,513	-0,42	-1,22
726,048	-1,74	-1,537
736,595	-2,64	-1,852
747,155	-4,52	-2,306
757,69	-6,54	-2,768
768,219	-8,1	-3,215
778,761	-12,24	-3,429
789,302	-12,84	-3,462
799,85	-13,24	-3,493
810,379	-13,24	-3,497
820,903	-13,22	-3,499
831,444	-10,62	-2,845
841,973	-5,06	-2,041
852,539	-1,5	-1,174
863,08	1,12	-0,459
873,622	3,5	-0,03
884,175	3,7	-0,002
894,716	3,66	-0,217
905,264	1,46	-0,826
915,811	-1,36	-1,431
926,358	-3,2	-2,031
936,882	-4,64	-2,332
947,417	-6,18	-2,681
957,965	-8,52	-3,066
968,488	-10,6	-3,323
979,047	-12,72	-3,473
989,583	-12,98	-3,493
1000,1	-12,92	-3,5
1010,63	-11,3	-3,002
1021,171	-6,66	-2,303
1031,724	-2,22	-1,406
1042,248	-0,38	-0,924
1052,777	1,62	-0,38
1063,301	3,24	-0,069
1073,836	3,74	-0,018
1084,377	3,78	-0,003
1094,901	3,76	-0,001
1105,436	3,74	-0,078
1115,996	2,94	-0,491
1126,537	0,6	-0,941
1137,066	-1,1	-1,49
1147,614	-3,54	-2,102
1158,161	-5,42	-2,618
1168,703	-7,78	-3,141
1179,274	-11,34	-3,457
1189,827	-11,64	-3,494
1200,363	-11,38	-3,499
1210,886	-11,16	-3,497
1221,422	-10,78	-3,141
1231,969	-6,62	-2,628
1242,498	-4,48	-2,208
1253,046	-1,74	-1,564
1263,593	-0,26	-1,069
1274,105	0,7	-0,715
1284,64	1,8	-0,282
1295,181	3,42	-0,043
1305,741	3,74	-0,007
1316,288	3,74	-0,002
1326,836	3,72	0
1337,365	3,08	-0,365
1347,906	1,52	-0,789
1358,454	-0,02	-1,221
1369,001	-1,8	-1,716
1379,549	-2,34	-1,966
1390,066	-3,84	-2,445
1400,613	-5,4	-2,967
1411,149	-7,62	-3,338
1421,678	-9,26	-3,442
1432,208	-9,72	-3,488
1442,725	-9,68	-3,494
1453,266	-9,64	-3,498
1463,784	-9,58	-3,486
1474,325	-8,96	-3,094
1484,855	-6,74	-2,839
1495,378	-5,72	-2,554
1505,913	-3,52	-2,236
1516,455	-2,34	-1,924
1526,996	-1,12	-1,529
1537,532	-0,52	-1,27
1548,079	0,42	-0,838
1558,644	1,82	-0,258
1569,186	2,98	-0,095
1579,721	3,58	-0,018
1590,245	3,66	-0,009
1600,78	3,66	-0,004
1611,309	3,66	-0,005
1621,833	3,66	-0,004
1632,392	3,62	-0,001
1642,922	3,64	-0,001
1653,457	3,6	-0,152
1663,998	3,22	-0,426
1674,528	2,54	-0,545
1685,057	1,28	-0,86
1695,587	0,88	-0,928
1706,122	-0,18	-1,195
1716,657	-1,26	-1,623
1727,187	-1,96	-1,966
1737,722	-2,68	-2,284
1748,252	-3,92	-2,748
1758,781	-5,4	-3,069
1769,322	-7,54	-3,423
1779,858	-8,66	-3,474
1790,381	-8,78	-3,488
1800,934	-8,78	-3,495
1811,446	-8,76	-3,498
1821,969	-8,7	-3,499
1832,505	-8,66	-3,414
1843,04	-8,06	-3,063
1853,593	-4,46	-2,558
1864,135	-2,44	-2,054
1874,646	-1,36	-1,74
1885,194	-0,12	-1,176
1895,717	0,16	-0,959
1906,264	1	-0,624
1916,806	1,96	-0,251
1927,347	3,08	-0,064
1937,889	3,36	-0,03
1948,436	3,52	-0,007
1958,959	3,54	-0,003
1969,513	3,52	-0,001
1980,048	3,5	-0,154
1990,584	1,6	-0,758
2001,119	0,82	-0,926
2011,666	-0,12	-1,236
2022,196	-0,56	-1,492
2032,737	-1,5	-1,826
2043,261	-1,3	-1,764
2053,796	-0,76	-1,481
2064,325	-1,1	-1,69
2074,849	-0,66	-1,512
2085,396	0,34	-1,077
2095,932	2,48	-0,523
2106,473	3,48	-0,005
2116,996	3,48	-0,002
2127,52	3,48	-0,005
2138,055	3,16	-0,047
2148,579	0,14	-1,025
2159,102	-2,04	-1,969
2169,619	-5,74	-2,858
2180,149	-8,02	-3,499
2190,684	-8,02	-3,495
2201,214	-7,16	-3,434
2211,755	-4,58	-3,077
2222,272	-2,58	-2,418
2232,808	-0,52	-1,396
2243,325	-0,66	-1,46
2253,837	0,22	-1,157
2264,396	0	-1,187
2274,937	0,64	-1,083
2285,449	1,68	-0,716
2296,002	3,4	-0,228
2306,544	3,4	-0,001
2317,073	3,42	-0,004
2327,614	3,38	-0,009
2338,144	2,48	-0,116
2348,685	1,96	-0,167
2359,203	0,4	-0,87
2369,756	-1,56	-1,898
2380,291	-3,78	-2,521
2390,833	-4,96	-2,763
2401,362	-6,46	-3,049
2411,94	-6,62	-3,134
2422,493	-7,34	-3,445
2433,058	-7,34	-3,499
2443,606	-7,34	-3,496
2454,153	-7,18	-3,481
2464,677	-6,24	-3,412
2475,212	-3,2	-2,762
2485,741	-1,38	-2,121
2496,259	0,02	-1,244
2506,782	3,28	-0,2
2517,312	3,3	-0,004
2527,829	2,76	-0,075
2538,352	0,26	-0,915
2548,876	-1,44	-1,822
2559,405	-3,66	-2,602
2569,935	-7,08	-3,499
2580,458	-7,02	-3,491
2591,005	-6,46	-3,439
2601,547	-4,22	-3,102
2612,064	-1,46	-2,117
2622,6	-0,76	-1,776
2633,135	0,02	-1,334
2643,67	0,62	-0,95
2654,2	2,46	-0,462
2664,723	3,22	-0,001
2675,247	3,24	-0,001
2685,782	3,22	-0,003
2696,323	3,2	-0,005
2706,847	3,04	-0,024
2717,37	1,3	-0,333
2727,906	1	-0,509
2738,429	0,54	-0,698
2748,97	-0,1	-1,222
2759,518	-1,2	-1,79
2770,047	-2,46	-2,279
2780,553	-4,64	-2,908
2791,082	-6,64	-3,344
2801,611	-6,64	-3,499
2812,141	-6,64	-3,498
2822,676	-6,6	-3,494
2833,218	-6,5	-3,484
2843,741	-4,98	-3,395
2854,276	-3,38	-2,982
2864,806	-2,38	-2,563
2875,341	-1,9	-2,43
2885,859	-1,08	-2,014
2896,376	-0,7	-1,742
2906,893	0,16	-1,163
2917,423	2,38	-0,484
2927,946	3,08	-0,121
2938,469	3,08	0
2949,011	3,08	-0,001
2959,534	3,08	-0,002
2970,04	3,06	-0,004
2980,563	3,04	-0,008
2991,092	2,86	-0,021
3001,64	2,88	-0,024
3012,163	1,56	-0,145
3022,705	0,28	-0,912
3033,24	-0,74	-1,61
3043,757	-2,88	-2,519
3054,287	-5,78	-3,13
3064,804	-6,24	-3,498
3075,328	-6,12	-3,484
3085,869	-4,76	-3,322
3096,392	-2,66	-2,814
3106,928	-1,82	-2,41
3117,457	-0,9	-1,932
3127,981	-0,44	-1,557
3138,498	0,14	-1,216
3149,021	0,78	-0,89
3157,283	2,96	-0,001

File: _3.txt
Time (s)	Load (N)	Displacement (mm)
0	-0,16	-0,035
10,858	1,26	-0,001
21,598	1,58	-0,004
32,343	1,76	-0,005
43,101	1,8	-0,022
53,876	1,78	-0,042
64,645	1,14	-0,091
75,391	-6,78	-1,693
86,172	-9,32	-2,329
96,918	-11,48	-2,673
107,693	-12	-2,739
118,468	-11,32	-2,693
129,22	-12,02	-2,745
140,013	-11,38	-2,558
150,8	-9,44	-2,393
161,57	-10,28	-2,499
172,393	-8,5	-2,267
183,216	-6,38	-1,902
193,986	-5,92	-1,903
204,803	-5,16	-1,796
215,585	-6,04	-1,864
226,384	-5,24	-1,73
237,195	-5,12	-1,702
247,995	-5,16	-1,733
258,8	-3,66	-1,553
269,624	-2,6	-1,246
280,417	-2,42	-1,228
291,21	-2,42	-1,161
302,022	-1,78	-1,042
312,839	-0,58	-0,734
323,65	0,4	-0,462
334,456	1,12	-0,255
345,261	1,66	-0,147
356,073	2,22	-0,09
366,872	2,6	-0,051
377,689	2,86	-0,018
388,477	2,9	-0,016
399,276	2,96	-0,012
410,069	3	-0,007
420,869	3,02	-0,007
431,668	3,02	-0,005
442,492	3,02	-0,002
453,309	3,02	-0,002
464,108	3,02	-0,001
474,914	3,04	-0,002
485,731	3,04	-0,001
496,537	3,04	-0,001
507,354	3,02	-0,018
518,171	3,02	-0,242
528,995	2,44	-0,431
539,818	1,48	-0,732
550,617	0,46	-0,941
561,435	-0,64	-1,154
572,24	-0,68	-1,104
583,076	-1,24	-1,307
593,899	-2,3	-1,587
604,698	-2,38	-1,609
615,516	-2,96	-1,775
626,345	-3,72	-2,042
637,162	-3,7	-2,037
648,01	-4,76	-2,347
658,821	-4,86	-2,339
669,621	-5,42	-2,477
680,432	-5,76	-2,443
691,249	-6,42	-2,704
702,061	-6,64	-2,717
712,86	-6,64	-2,744
723,684	-7,2	-2,868
734,501	-8,16	-2,977
745,318	-8,08	-2,987
756,148	-8,34	-3,01
766,971	-9,04	-3,142
777,801	-9,86	-3,326
788,624	-9,64	-3,269
799,447	-9	-3,141
810,247	-9,4	-3,21
821,082	-9,56	-3,247
831,911	-10,8	-3,34
842,723	-9,88	-3,224
853,546	-8,92	-3,202
864,364	-9,5	-3,213
875,193	-9,2	-3,242
886,004	-10,94	-3,35
896,804	-8,96	-3,14
907,621	-7,7	-2,937
918,42	-6,48	-2,771
929,226	-5,7	-2,575
940,019	-4,36	-2,269
950,831	-3,14	-2,054
961,666	-3,3	-2,065
972,483	-3,02	-2,006
983,301	-3,28	-2,002
994,088	-2,38	-1,852
1004,899	-3,36	-2,087
1015,705	-4	-2,22
1026,522	-4,14	-2,252
1037,346	-2,8	-1,963
1048,139	-2,02	-1,732
1058,944	-1,38	-1,518
1069,75	-1,42	-1,454
1080,561	-1,32	-1,53
1091,373	-0,8	-1,24
1102,184	0,24	-1,167
1112,977	-0,3	-1,122
1123,789	-0,36	-1,167
1134,564	0,26	-0,968
1145,369	0,26	-0,982
1156,175	0,42	-0,987
1166,986	0,52	-0,958
1177,804	0,14	-1,011
1188,603	0,26	-0,975
1199,396	0,46	-0,956
1210,196	0,96	-0,909
1221,007	1,04	-0,777
1231,824	1,18	-0,826
1242,642	2	-0,56
1253,423	3	-0,487
1264,259	1,66	-0,657
1275,052	2,62	-0,521
1285,857	2,32	-0,52
1296,669	2,48	-0,506
1307,48	2,48	-0,471
1318,274	2,06	-0,593
1329,085	1,54	-0,743
1339,914	1,16	-0,782
1350,714	1,48	-0,682
1361,513	1,72	-0,617
1372,312	1,84	-0,608
1383,13	0,7	-0,817
1393,947	0,6	-0,881
1404,771	2,02	-0,618
1415,576	1,34	-0,803
1426,369	0,86	-0,837
1437,175	0,02	-1,097
1447,998	-0,78	-1,409
1458,816	-1,16	-1,617
1469,651	-1,82	-1,878
1480,468	-2,38	-2,111
1491,262	-2,38	-2,077
1502,097	-2,9	-2,412
1512,932	-3,64	-2,646
1523,744	-4,24	-2,777
1534,543	-4,92	-2,951
1545,349	-5,12	-3,026
1556,16	-6,88	-3,32
1566,989	-8,08	-3,457
1577,789	-8,12	-3,459
1588,606	-8	-3,451
1599,417	-7,8	-3,428
1610,241	-7,86	-3,436
1621,034	-7,66	-3,415
1631,828	-5,94	-3,334
1642,639	-6,16	-3,282
1653,457	-5,08	-3,05
1664,28	-4,82	-3,011
1675,079	-4,16	-2,842
1685,885	-3,56	-2,708
1696,69	-3,46	-2,68
1707,495	-2,14	-2,323
1718,289	-1,86	-2,043
1729,082	-1,24	-1,796
1739,893	-1,12	-1,65
1750,717	-1,36	-1,813
1761,522	-1,38	-1,844
1772,346	-1,78	-2,002
1783,145	-1,74	-1,992
1793,956	-1,94	-2,227
1804,756	-1,64	-2,064
1815,561	-1,9	-2,126
1826,379	-2,1	-2,196
1837,19	-2,08	-2,225
1848,007	-1,98	-2,15
1858,813	-1,64	-2,081
1869,612	-1,34	-1,922
1880,429	-1,12	-1,747
1891,229	-0,98	-1,662
1902,052	-1,14	-1,773
1912,84	-1	-1,586
1923,657	-1,18	-1,762
1934,486	-1,06	-1,811
1945,298	-1,06	-1,729
1956,109	-1	-1,746
1966,921	-0,9	-1,652
1977,72	-0,36	-1,291
1988,525	-0,16	-1,196
1999,337	0	-1,123
2010,13	0,1	-1,01
2020,911	1,12	-0,76
2031,729	1,44	-0,617
2042,522	2,5	-0,422
2053,334	2,72	-0,312
2064,145	2,96	-0,031
2074,944	2,96	-0,001
2085,744	2,98	-0,002
2096,543	2,98	-0,003
2107,36	2,96	-0,004
2118,16	2,94	-0,004
2128,953	2,94	-0,004
2139,765	2,94	-0,004
2150,564	2,94	-0,004
2161,351	2,88	-0,008
2172,163	2,92	-0,004
2182,974	2,88	-0,006
2193,774	2,88	-0,007
2204,573	2,9	-0,007
2215,378	2,88	-0,008
2226,196	2,88	-0,008
2236,989	2,88	-0,007
2247,806	2,84	-0,008
2258,594	2,82	-0,013
2269,393	2,76	-0,02
2280,199	2,44	-0,038
2291,022	2,52	-0,041
2301,809	2,42	-0,064
2312,609	1,86	-0,15
2323,39	1,46	-0,247
2334,19	1,44	-0,199
2345,001	2,3	-0,051
2355,812	2,28	-0,062
2366,636	2,74	-0,013
2377,459	2,8	-0,002
2388,258	2,76	0
2399,064	2,74	0
2409,875	2,74	-0,001
2420,669	2,76	-0,001
2431,498	2,74	-0,001
2442,303	2,72	-0,002
2453,115	2,72	-0,002
2463,932	2,72	-0,001
2474,743	2,7	-0,002
2485,555	2,7	-0,002
2496,36	2,68	-0,001
2507,16	2,7	-0,002
2517,971	2,68	-0,003
2528,776	2,68	-0,005
2539,594	2,66	-0,004
2550,381	2,6	-0,012
2561,193	2,58	-0,016
2572,016	2,62	-0,01
2582,833	2,62	-0,011
2593,651	2,62	-0,007
2604,444	2,6	-0,01
2615,243	2,6	-0,012
2626,073	2,6	-0,011
2636,854	2,6	-0,008
2647,678	2,62	-0,006
2658,477	2,62	-0,006
2669,294	2,62	-0,003
2680,094	2,62	-0,002
2690,887	2,62	-0,002
2701,711	2,6	-0,002
2712,51	2,6	-0,002
2723,321	2,6	-0,001
2734,109	2,58	-0,001
2744,92	2,58	-0,001
2755,731	2,58	-0,001
2766,525	2,58	-0,001
2777,33	2,56	-0,001
2788,124	2,56	-0,001
2798,917	2,54	-0,001
2809,716	2,54	0
2820,534	2,54	-0,041
2831,339	2,52	-0,03
2842,144	2,52	-0,045
2852,962	2,5	-0,124
2863,773	1,88	-0,39
2874,567	2,14	-0,392
2885,36	2,16	-0,342
2896,171	1,62	-0,456
2906,971	0,86	-0,65
2917,806	0,54	-0,835
2928,6	0	-1,236
2939,411	0	-1,254
2950,222	-0,16	-1,4
2961,052	-0,46	-1,578
2971,839	-0,6	-1,795
2982,638	-0,42	-1,678
2993,432	-0,52	-1,65
3004,237	-0,72	-1,898
3015,043	-0,86	-2,078
3025,842	-0,78	-1,962
3036,629	-0,66	-1,796
3047,429	-1,02	-2,079
3058,252	-1,34	-2,411
3069,046	-1,74	-2,616
3079,845	-1,46	-2,474
3090,65	-1,54	-2,557
3101,45	-1,9	-2,718
3112,261	-2,36	-2,879
3123,066	-3	-3,15
3133,866	-3,26	-3,236
3144,677	-4	-3,394
3155,489	-5,08	-3,482
3166,294	-5,2	-3,497
3177,087	-5,2	-3,498
3187,881	-5,18	-3,499
3198,68	-5,16	-3,5
3209,479	-5,14	-3,426
3220,273	-4,72	-3,178
3231,078	-5,12	-3,359
3240,738	2,34	0