Folder: Data-filter--cyclical-tests-BEPE-project-/ensaios_Ciclicos/_60perc/_2gap/entrada

Note: README.md
# Data filter (cyclical tests BEPE project)
python aplication to treat data get by fatigue testing machine

File: _1.txt
Time (s)	Load (N)	Displacement (mm)
0	0	-0,026
10,755	0,5	-0,172
21,494	1	-0,18
32,227	1	0
42,979	0,5	0
53,724	1	-0,001
64,452	1	-0,002
75,191	1	-0,002
85,918	1,5	-0,002
96,688	1	-0,004
107,421	1	-0,006
118,161	1,5	-0,014
128,906	1	-0,032
139,645	0,5	-0,11
150,391	0,5	-0,112
161,13	0,5	-0,12
171,869	0,5	-0,102
182,615	1	-0,079
193,348	0,5	-0,103
204,088	0	-0,172
214,833	0	-0,242
225,578	0	-0,328
236,312	0	-0,392
247,051	0	-0,462
257,79	0	-0,4
268,542	0	-0,405
279,299	0	-0,333
290,039	0	-0,452
300,784	0	-0,418
311,535	-0,5	-0,492
322,287	0	-0,396
333,014	-1	-0,824
343,766	-1	-0,834
354,505	-1,5	-0,976
365,244	-1,5	-1,073
376,002	-1,5	-0,984
386,747	-0,5	-0,807
397,492	-0,5	-0,668
408,238	-0,5	-0,782
419,001	-0,5	-0,558
429,759	0	-0,32
440,51	0,5	-0,169
451,267	1	-0,091
462,025	1	-0,058
472,77	1	-0,063
483,528	1,5	-0,034
494,261	1,5	-0,028
505,012	1,5	-0,015
515,77	1,5	-0,004
526,521	1,5	-0,001
537,272	1,5	0
548,036	1	-0,34
558,781	0,5	-0,572
569,521	1	-0,507
580,284	1,5	-0,375
591,029	1	-0,393
601,781	1,5	-0,164
612,538	1	-0,476
623,278	1	-0,421
634,035	1	-0,446
644,804	0,5	-0,531
655,55	0	-0,576
666,301	0	-0,602
677,053	0	-0,672
687,804	-0,5	-0,867
698,555	-1	-1,022
709,319	-1	-1,024
720,088	-1,5	-1,216
730,863	-1,5	-1,286
741,609	-1,5	-1,332
752,348	-1,5	-1,171
763,106	-1,5	-1,322
773,863	-2	-1,437
784,602	-1,5	-1,24
795,378	-2	-1,486
806,159	-2,5	-1,765
816,941	-3	-1,968
827,692	-3	-1,925
838,449	-2,5	-1,96
849,225	-3,5	-2,17
859,988	-4	-2,347
870,751	-4,5	-2,407
881,533	-5	-2,59
892,302	-5	-2,574
903,066	-5,5	-2,755
913,817	-5,5	-2,818
924,598	-7,5	-3,206
935,38	-8,5	-3,348
946,125	-8,5	-3,29
956,901	-9,5	-3,421
967,664	-10	-3,428
978,427	-10,5	-3,463
989,179	-10,5	-3,471
999,936	-10,5	-3,485
1010,693	-10,5	-3,47
1021,469	-10,5	-3,475
1032,214	-10,5	-3,47
1042,99	-10,5	-3,492
1053,753	-11	-3,497
1064,498	-10,5	-3,499
1075,268	-10,5	-3,494
1086,037	-10,5	-3,251
1096,807	-9,5	-2,966
1107,558	-8,5	-2,875
1118,327	-8	-2,721
1129,097	-6	-2,552
1139,854	-4,5	-2,25
1150,617	-3,5	-2,053
1161,369	-3,5	-1,93
1172,126	-3	-1,916
1182,896	-2,5	-1,742
1193,653	-2	-1,583
1204,398	-1,5	-1,439
1215,162	-2	-1,506
1225,925	-2	-1,548
1236,694	-1,5	-1,441
1247,476	-1,5	-1,291
1258,251	-0,5	-1,182
1269,009	-0,5	-1,072
1279,766	-0,5	-1,014
1290,517	-0,5	-0,878
1301,281	-0,5	-1,009
1312,05	-0,5	-1,025
1322,814	-1	-1,082
1333,577	-0,5	-1,038
1344,34	-0,5	-0,904
1355,11	-1	-1,037
1365,885	-0,5	-0,916
1376,637	0	-0,799
1387,394	0	-0,732
1398,169	0	-0,517
1408,915	0	-0,526
1419,666	0	-0,558
1430,447	0	-0,354
1441,193	0	-0,405
1451,95	0	-0,44
1462,72	0	-0,267
1473,477	0,5	-0,158
1484,24	1	-0,108
1494,998	1,5	-0,067
1505,749	1,5	-0,023
1516,501	1,5	-0,009
1527,258	1,5	-0,006
1538,009	1,5	-0,002
1548,767	2	-0,001
1559,53	1,5	-0,001
1570,287	1,5	-0,018
1581,045	1,5	-0,252
1591,808	1	-0,377
1602,56	1	-0,532
1613,329	0	-0,85
1624,092	-1	-1,144
1634,844	-1,5	-1,352
1645,613	-2	-1,777
1656,371	-3	-2,067
1667,122	-4	-2,306
1677,879	-4,5	-2,55
1688,625	-5	-2,69
1699,394	-6	-3,018
1710,157	-8,5	-3,37
1720,921	-9	-3,401
1731,69	-9,5	-3,446
1742,448	-9,5	-3,459
1753,205	-10	-3,486
1763,974	-10	-3,496
1774,726	-10	-3,497
1785,477	-10	-3,498
1796,241	-10	-3,499
1807,004	-9,5	-3,215
1817,779	-7,5	-2,82
1828,537	-6,5	-2,637
1839,294	-5	-2,351
1850,051	-4,5	-2,194
1860,815	-3,5	-2,023
1871,572	-3	-1,886
1882,33	-2	-1,634
1893,087	-2	-1,56
1903,844	-1,5	-1,418
1914,596	-1	-1,11
1925,359	-0,5	-1,01
1936,129	0	-0,796
1946,886	0	-0,674
1957,661	0	-0,475
1968,419	0,5	-0,168
1979,188	1,5	-0,07
1989,945	1,5	-0,031
2000,703	1,5	-0,022
2011,46	2	-0,009
2022,23	1,5	-0,004
2032,981	1,5	-0,001
2043,744	1	-0,369
2054,502	0	-0,82
2065,259	-1,5	-1,306
2076,017	-1,5	-1,522
2086,78	-2	-1,79
2097,549	-2,5	-2,082
2108,307	-3	-2,276
2119,058	-3,5	-2,367
2129,809	-3,5	-2,313
2140,567	-3	-2,301
2151,336	-3,5	-2,476
2162,106	-3	-2,359
2172,851	-3	-2,346
2183,614	-3	-2,277
2194,366	-2,5	-2,133
2205,123	-2	-1,987
2215,893	-2	-1,881
2226,65	-2	-1,872
2237,413	-1,5	-1,669
2248,171	-2	-1,687
2258,934	-1,5	-1,684
2269,691	-2	-1,772
2280,443	-2	-1,735
2291,194	-1,5	-1,671
2301,958	-2,5	-1,933
2312,715	-2	-1,937
2323,454	-1,5	-1,78
2334,21	-2	-1,837
2344,969	-2	-1,996
2355,715	-2,5	-2,092
2366,472	-2,5	-2,122
2377,217	-2,5	-2,081
2387,975	-2	-2,017
2398,738	-3,5	-2,597
2409,507	-6,5	-3,353
2420,265	-8	-3,454
2431,022	-7,5	-3,446
2441,774	-8	-3,447
2452,543	-7,5	-3,467
2463,306	-7,5	-3,466
2474,052	-7	-3,422
2484,797	-6	-3,327
2495,555	-5	-3,149
2506,312	-5,5	-3,29
2517,063	-4,5	-3,109
2527,833	-4,5	-3,092
2538,578	-5	-3,164
2549,336	-5	-3,224
2560,099	-5,5	-3,345
2570,85	-6,5	-3,411
2581,614	-7	-3,433
2592,371	-6,5	-3,437
2603,134	-7	-3,453
2613,886	-6,5	-3,42
2624,637	-6	-3,36
2635,401	-5,5	-3,295
2646,146	-4,5	-3,077
2656,891	-4	-2,952
2667,655	-3,5	-2,72
2678,424	-3	-2,692
2689,182	-3	-2,659
2699,939	-3	-2,497
2710,708	-2,5	-2,508
2721,478	-3	-2,666
2732,235	-3	-2,59
2742,998	-2,5	-2,464
2753,744	-2	-2,301
2764,501	-2	-2,242
2775,247	-2	-2,238
2786,004	-2	-2,267
2796,749	-2	-2,105
2807,507	-2	-2,076
2818,252	-1,5	-2,146
2829,016	-2	-2,207
2839,767	-2	-2,228
2850,524	-2	-2,215
2861,288	-2	-2,302
2872,057	-2	-2,307
2882,826	-2	-2,291
2893,584	-1,5	-2,272
2904,347	-2	-2,312
2915,099	-2	-2,258
2925,862	-2,5	-2,41
2936,619	-2,5	-2,376
2947,371	-1,5	-2,104
2958,128	-1,5	-2,091
2968,88	-2	-2,192
2979,655	-2	-2,339
2990,406	-2	-2,324
3001,158	-2	-2,372
3011,927	-2	-2,536
3022,684	-2	-2,602
3033,442	-3	-2,808
3044,199	-3,5	-3,093
3054,951	-4	-3,246
3065,702	-4	-3,293
3076,465	-5	-3,41
3087,247	-5	-3,442
3097,998	-5,5	-3,454
3108,756	-5,5	-3,458
3119,495	-5	-3,42
3130,252	-5	-3,422
3141,016	-5	-3,435
3151,773	-5,5	-3,454
3162,536	-5	-3,461
3173,282	-5	-3,447
3184,033	-5	-3,447
3194,797	-5,5	-3,448
3205,554	-5	-3,459
3216,299	-5,5	-3,459
3221,957	1,5	0

File: _3.txt
Time (s)	Load (N)	Displacement (mm)
0	0	-0,04
10,205	-2	-0,572
20,332	-16,5	-3,5
30,472	-9,5	-2,696
40,599	1	-0,001
50,744	-3,5	-1,194
60,902	-15	-3,498
71,041	-5	-1,98
81,181	1,5	-0,004
91,32	-4,5	-1,453
101,465	-15	-3,498
111,593	-6	-2,34
121,738	1,5	-0,001
131,92	0	-0,424
142,065	-11	-2,785
152,217	-13,5	-3,441
162,38	-3	-1,484
172,543	1,5	-0,005
218,861	-1,5	-1,017
229,048	-14	-3,498
239,212	-7,5	-2,799
249,381	0	-0,515
259,545	0,5	-0,209
269,69	-10,5	-2,823
279,847	-10,5	-3,295
290,005	-0,5	-0,77
300,162	1	-0,078
310,344	-6	-2,052
320,495	-13,5	-3,495
330,664	-4,5	-2,225
340,846	1,5	-0,001
351,021	-0,5	-0,7
361,185	-13	-3,387
371,354	-8	-2,974
381,535	0	-0,692
391,711	1,5	-0,04
438,046	-0,5	-0,743
448,228	-11,5	-3,051
458,415	-10	-3,303
468,59	-1	-0,93
478,766	1,5	-0,006
488,964	-1	-0,947
499,14	-9	-2,737
509,321	-12	-3,484
519,497	-4	-2,386
529,678	1,5	-0,239
539,859	1,5	-0,069
550,047	-3	-1,686
560,228	-12,5	-3,498
570,398	-5,5	-2,566
580,597	1	-0,401
590,785	1,5	-0,055
600,954	-4,5	-2
611,111	-12	-3,487
693,649	-4	-2,147
703,812	1,5	-0,001
713,993	0	-0,635
724,169	-10	-2,988
734,332	-10	-3,376
744,508	-1,5	-1,049
754,689	1,5	-0,01
764,877	-1,5	-1,257
775,07	-12	-3,388
785,245	-9	-3,182
795,433	-1,5	-1,068
805,584	1,5	-0,014
815,76	-2	-1,427
825,935	-11,5	-3,499
836,098	-5	-2,59
846,262	1,5	-0,298
856,443	1	-0,101
866,619	-4,5	-2,168
876,782	-11,5	-3,49
886,958	-3,5	-2,082
897,127	1,5	-0,001
907,29	-0,5	-0,716
917,466	-11,5	-3,099
927,641	-10,5	-3,426
937,805	-2	-1,551
947,974	1,5	-0,004
958,149	-1	-1,178
968,325	-11,5	-3,499
978,506	-5	-2,68
988,676	1,5	-0,168
998,851	0	-0,258
1009,027	-7,5	-2,754
1019,196	-10,5	-3,446
1029,365	-1,5	-1,342
1039,553	1,5	-0,008
1049,716	-1,5	-1,497
1059,892	-11,5	-3,498
1070,055	-4,5	-2,474
1080,224	1,5	-0,284
1090,388	0,5	-0,224
1100,563	-6,5	-2,574
1110,745	-10,5	-3,469
1120,908	-2	-1,616
1131,066	1,5	-0,006
1141,247	-1,5	-1,392
1151,41	-11	-3,499
1161,58	-5	-2,611
1171,743	1,5	-0,258
1181,913	1	-0,148
1192,076	-5	-2,368
1202,228	-11	-3,475
1212,397	-2,5	-1,627
1222,554	1,5	-0,004
1232,718	-1	-1,286
1242,893	-11	-3,499
1253,063	-6	-2,952
1263,22	0	-0,736
1273,395	1,5	-0,051
1283,559	-3,5	-1,974
1293,728	-11	-3,496
1303,892	-4	-2,348
1314,067	1	-0,294
1324,231	1	-0,154
1334,388	-5	-2,297
1344,557	-11	-3,487
1354,721	-2,5	-1,965
1364,896	1,5	-0,002
1375,066	0	-0,724
1385,235	-8,5	-2,817
1395,398	-10	-3,449
1405,574	-2,5	-1,875
1415,737	1,5	-0,001
1425,901	0	-0,524
1436,07	-6,5	-2,574
1446,234	-10,5	-3,463
1456,391	-2	-1,588
1466,555	1,5	-0,003
1476,718	-1	-1,162
1486,887	-11	-3,365
1497,051	-6,5	-3,085
1507,214	0	-0,74
1517,378	1,5	-0,055
1527,535	-3,5	-2,082
1537,704	-10,5	-3,493
1547,874	-3,5	-2,238
1558,025	1,5	-0,18
1568,213	1	-0,098
1578,394	-2,5	-1,855
1588,551	-10,5	-3,499
1598,703	-6,5	-3,116
1608,86	-1	-1,002
1619,024	2	-0,006
1629,187	-0,5	-1,079
1639,357	-9,5	-3,058
1649,508	-9	-3,42
1659,671	-1,5	-1,387
1669,829	1,5	-0,004
1679,986	-0,5	-1,078
1690,144	-10,5	-3,258
1700,307	-8	-3,3
1710,47	-1,5	-1,312
1720,64	1,5	-0,005
1730,803	-1	-1,254
1740,967	-10,5	-3,494
1751,136	-6,5	-3,127
1761,294	0	-0,822
1771,457	1,5	-0,03
1781,614	-2,5	-1,761
1791,784	-10,5	-3,498
1801,935	-4	-2,527
1812,093	1,5	0
1822,25	0	-0,661
1832,408	-8,5	-2,903
1842,565	-9	-3,389
1852,728	-1	-1,152
1862,88	1,5	-0,022
1873,043	-3	-1,892
1883,207	-10,5	-3,496
1893,37	-2	-1,89
1903,527	2	-0,002
1913,691	-1	-1,215
1923,848	-10,5	-3,499
1934	-3	-2,232
1944,151	1,5	-0,002
1954,303	-1	-1,128
1964,46	-10,5	-3,499
1974,617	-4	-2,551
1984,769	1	-0,391
1994,92	0,5	-0,098
2005,078	-5,5	-2,464
2015,235	-10	-3,461
2025,393	-1,5	-1,315
2035,544	1,5	-0,005
2045,701	-1	-1,338
2055,847	-10	-3,498
2065,992	-3	-2,226
2076,156	2	-0,001
2086,313	0	-0,671
2096,476	-10,5	-3,439
2106,634	-6,5	-3,165
2116,779	0	-0,66
2126,925	1,5	-0,064
2137,088	-3	-1,981
2147,246	-10	-3,497
2157,397	-3	-2,146
2167,548	1,5	0
2177,706	0	-0,392
2187,869	-6,5	-2,581
2198,027	-8,5	-3,41
2208,184	-1,5	-1,31
2218,347	1,5	-0,021
2228,511	-2	-1,791
2238,662	-10	-3,486
2248,82	-1	-1,4
2258,971	1,5	-0,007
2269,129	-1,5	-1,513
2279,274	-10	-3,499
2289,425	-4	-2,606
2299,583	2	-0,106
2309,74	0,5	-0,248
2319,904	-4,5	-2,505
2330,055	-10	-3,481
2340,213	-2	-1,871
2350,364	1,5	-0,001
2360,521	0	-0,841
2370,679	-9	-3,015
2380,836	-7,5	-3,374
2390,994	0	-0,882
2401,157	1,5	-0,054
2411,308	-3	-2,076
2421,466	-9	-3,487
2431,617	-1,5	-1,754
2441,763	2	-0,003
2451,92	-0,5	-1,127
2462,09	-9	-3,5
2472,235	-4	-2,786
2482,392	1,5	-0,351
2492,544	0	-0,373
2502,707	-6	-2,793
2512,877	-8	-3,415
2523,04	-1	-1,354
2533,198	2	-0,008
2543,355	-0,5	-1,483
2553,518	-9	-3,499
2563,676	-3	-2,487
2573,833	1,5	-0,259
2583,997	0,5	-0,33
2594,148	-4,5	-2,591
2604,299	-8	-3,47
2614,445	-1	-1,546
2624,608	2	-0,006
2634,766	-0,5	-1,538
2644,929	-8	-3,499
2655,093	-3	-2,605
2665,256	1,5	0
2675,419	0	-0,704
2685,577	-8	-3,138
2695,734	-5,5	-3,27
2705,904	0	-0,794
2716,061	0,5	-0,194
2726,218	-5,5	-2,952
2736,358	-5,5	-3,207
2746,521	0	-0,762
2756,685	1,5	-0,068
2766,836	-2,5	-2,282
2776,994	-7,5	-3,485
2787,151	-1	-1,701
2797,308	2	-0,003
2807,466	0	-1,13
2817,623	-7,5	-3,5
2827,781	-3,5	-2,856
2837,944	1,5	-0,34
2848,108	0	-0,665
2858,253	-7	-3,187
2868,416	-5,5	-3,36
2878,586	-0,5	-1,239
2888,743	2	-0,017
2898,907	-1	-1,866
2909,07	-7	-3,496
2919,228	-1,5	-2,162
2929,385	2	-0,001
2939,554	0,5	-0,679
2949,706	-5,5	-3,046
2959,869	-4,5	-3,276
2970,027	-0,5	-1,062
2980,178	1,5	-0,032
2990,341	-0,5	-1,972
3000,499	-6	-3,493
3010,638	-1	-1,926
3020,79	2	-0,002
3030,947	0	-1,027
3041,098	-6	-3,242
3051,256	-3	-3,085
3061,407	0,5	-0,617
3071,565	1	-0,098
3081,722	-3	-2,597
3091,874	-5,5	-3,448
3102,025	-0,5	-1,272
3112,17	1,5	-0,03
3122,322	-1	-1,932
3132,473	-6	-3,493
3142,631	-1	-1,971
3152,788	2	-0,002
3162,946	0	-0,901
3173,097	-6	-3,306
3183,248	-3	-3
3189,02	2	0

File: _4.txt
Time (s)	Load (N)	Displacement (mm)
36,099	-8,5	-2,165
45,903	-2	-1,02
55,712	-14,5	-3,493
65,516	1	0
75,331	-10,5	-2,673
85,129	-2	-1,045
94,95	-7	-2,14
104,777	-4	-1,769
114,611	-2,5	-1,228
124,42	-3	-1,394
134,242	-2,5	-1,308
144,051	-3	-1,652
153,86	-6	-2,006
163,688	-3	-1,482
173,497	-1,5	-0,996
255,519	-6	-2,512
265,358	0	-0,476
275,186	-6,5	-2,769
285,007	1,5	-0,053
294,84	-12	-3,494
304,668	1,5	0
314,495	-12	-3,444
324,329	1	-0,314
334,156	-4,5	-1,962
344,008	-6,5	-2,733
353,841	1	-0,062
363,669	-12	-3,499
373,508	-1	-0,913
383,341	-3	-1,647
393,175	-7	-2,914
475,304	-11,5	-3,497
485,144	1,5	-0,277
494,989	-6	-2,388
504,834	-3,5	-1,969
514,68	-1,5	-1,238
524,513	-8,5	-3,2
534,365	1,5	-0,008
544,198	-10	-3,043
554,044	-3	-1,807
563,871	-4,5	-2,112
573,723	-3	-2,023
583,568	0,5	-0,254
593,413	-11,5	-3,475
603,241	1,5	-0,038
613,074	-11	-3,499
622,902	1,5	-0,001
632,735	-11	-3,497
642,581	1,5	0
652,408	-9	-2,833
662,235	-1	-1,019
672,069	-7	-2,553
681,914	-1,5	-1,467
764,122	-9	-3,327
773,943	1,5	-0,074
783,783	-10,5	-3,49
793,616	2	-0,001
803,455	-8	-2,803
813,301	-2	-1,612
823,134	-0,5	-0,908
832,968	-8	-3,301
842,801	1,5	-0,022
852,641	-10,5	-3,498
862,48	1,5	-0,026
872,319	-10,5	-3,255
882,159	0	-0,819
891,998	-3	-1,876
901,844	-2	-1,692
911,665	-2	-1,572
921,505	-3	-2,095
931,356	0	-0,37
941,184	-10,5	-3,478
951,011	1,5	-0,016
960,844	-10,5	-3,499
970,66	1,5	0
980,487	-10,5	-3,499
990,315	1,5	0
1000,154	-10,5	-3,22
1009,994	1	-0,486
1019,821	-7	-2,723
1029,66	-2,5	-1,87
1039,5	0	-0,458
1049,333	-9,5	-3,423
1059,155	1,5	-0,002
1068,994	-10,5	-3,433
1078,834	1,5	-0,008
1088,655	-6,5	-2,58
1098,476	-3	-2,048
1108,31	0,5	-0,201
1118,149	-10	-3,463
1127,989	1,5	-0,047
1137,804	-10,5	-3,496
1147,632	2	-0,002
1193,625	-10	-3,484
1203,452	1,5	-0,004
1213,28	-10,5	-3,439
1223,107	0	-0,686
1232,935	-4,5	-2,297
1242,768	-2,5	-1,976
1252,596	-1	-1,15
1262,423	-9	-3,44
1272,245	1,5	-0,003
1282,09	-9	-3,048
1291,923	-0,5	-0,844
1301,757	-1	-1,138
1311,584	-9	-3,425
1321,412	1,5	-0,036
1331,245	-10	-3,5
1341,073	0	-0,918
1350,9	-3	-1,937
1360,734	-2,5	-2,085
1370,561	0	-0,652
1380,388	-6,5	-3,087
1390,222	1	-0,16
1400,055	-5,5	-2,849
1409,883	0	-0,688
1419,716	-4,5	-2,644
1429,532	0	-0,734
1439,359	-7	-3,181
1449,186	1,5	-0,04
1459,02	-10	-3,495
1468,835	0,5	-0,561
1478,663	-3,5	-2,045
1488,484	-2,5	-2,062
1498,318	0	-0,604
1508,145	-10	-3,462
1517,997	1,5	-0,002
1527,83	-10	-3,475
1537,663	0	-0,682
1547,485	-3,5	-2,092
1557,306	-3	-2,09
1567,134	0	-0,528
1576,961	-9,5	-3,426
1586,795	1,5	-0,006
1596,634	-10	-3,5
1606,467	0	-0,716
1616,295	-3	-1,97
1626,128	-3,5	-2,287
1635,956	0	-0,59
1645,789	-9,5	-3,426
1655,605	1,5	-0,014
1665,444	-10	-3,498
1675,278	1,5	-0,021
1685,105	-7,5	-2,833
1694,932	-1	-1,274
1704,766	-2	-1,633
1714,593	-3,5	-2,376
1724,415	0	-0,492
1734,254	-9	-3,437
1744,088	1,5	-0,006
1753,915	-10	-3,499
1763,748	1	-0,495
1773,588	-4,5	-2,259
1783,397	-2	-1,958
1793,219	0	-0,864
1803,046	-7	-3,251
1812,868	1,5	-0,028
1822,701	-10	-3,497
1832,529	2	-0,031
1842,368	-7,5	-2,798
1852,183	-1	-1,185
1862,017	-2	-1,642
1871,838	-3,5	-2,465
1881,666	0	-0,38
1891,487	-9,5	-3,44
1901,309	2	-0,008
1911,142	-10	-3,499
1920,963	1,5	-0,434
1930,791	-5	-2,481
1940,618	-1,5	-1,666
1950,446	0	-1,004
1960,267	-5,5	-3,03
1970,083	1	-0,145
1979,91	-9,5	-3,47
1989,744	2	-0,006
1999,571	-10	-3,499
2009,399	1,5	-0,286
2019,22	-5,5	-2,566
2029,041	-1,5	-1,605
2038,875	-0,5	-1,264
2048,702	-5,5	-2,932
2058,53	1	-0,09
2068,357	-9,5	-3,478
2078,191	2	-0,003
2088,012	-10	-3,433
2097,833	0	-0,578
2107,667	-4,5	-2,323
2117,494	-2	-1,858
2127,316	-0,5	-1,134
2137,137	-5	-2,91
2146,959	1	-0,099
2156,792	-9,5	-3,481
2166,608	2	-0,002
2176,435	-10	-3,5
2186,262	1	-0,594
2196,078	-3,5	-2,14
2205,905	-2	-1,78
2215,739	-0,5	-1,112
2225,572	-5	-2,955
2235,388	1,5	-0,077
2245,221	-9,5	-3,49
2255,048	2	-0,002
2264,876	-9,5	-3,5
2274,703	0	-0,76
2284,519	-4,5	-2,267
2294,346	-2	-2,004
2304,174	0	-0,874
2314,007	-6	-3,186
2323,84	1,5	-0,052
2333,668	-9,5	-3,493
2343,495	1,5	-0,001
2353,317	-9,5	-3,305
2363,138	0	-0,653
2372,96	-4,5	-2,393
2382,781	-1,5	-1,581
2392,615	-0,5	-1,254
2402,436	-4,5	-2,783
2412,263	0,5	-0,258
2422,079	-8,5	-3,425
2431,882	1,5	-0,021
2441,716	-9,5	-3,496
2451,531	2	-0,001
2461,359	-8,5	-3,08
2471,186	-0,5	-1,058
2481,02	-2	-1,884
2490,847	-2,5	-2,241
2500,674	0	-0,674
2510,508	-7,5	-3,369
2520,335	2	-0,023
2530,163	-9	-3,496
2539,978	2	-0,001
2549,812	-9	-3,332
2559,627	0	-0,688
2569,466	-3	-2,177
2579,294	-2	-2,002
2589,121	0	-0,742
2598,955	-6	-3,281
2608,782	2	-0,031
2618,622	-8,5	-3,493
2628,449	2	-0,001
2638,277	-9	-3,255
2648,098	0	-0,717
2657,919	-2,5	-2,164
2667,747	-1,5	-1,793
2677,574	-1	-1,339
2687,402	-3,5	-2,777
2697,223	1	-0,154
2707,033	-7,5	-3,473
2716,848	1,5	-0,004
2726,663	-7,5	-3,499
2736,491	2	-0,108
2746,306	-5,5	-2,868
2756,134	-0,5	-1,11
2765,955	-1	-1,718
2775,771	-2,5	-2,28
2785,604	0	-0,758
2795,42	-4,5	-3,111
2805,241	1,5	-0,094
2815,074	-7	-3,485
2824,896	2	-0,003
2834,729	-7	-3,5
2844,539	1,5	-0,308
2854,354	-4,5	-2,809
2864,188	-0,5	-1,316
2874,015	-0,5	-1,608
2883,818	-1,5	-2,205
2893,646	0	-0,884
2903,467	-4,5	-3,246
2913,301	1,5	-0,037
2923,128	-7	-3,493
2932,962	2	-0,002
2942,777	-7	-3,5
2952,599	1,5	-0,179
2962,432	-5	-2,849
2972,259	-0,5	-1,197
2982,105	-1	-1,748
2991,92	-2	-2,323
3001,748	0	-0,847
3011,563	-4,5	-3,264
3021,385	2	-0,009
3031,212	-7	-3,498
3041,034	1,5	-0,001
3050,849	-6,5	-3,489
3060,67	1,5	-0,416
3070,498	-3	-2,588
3080,331	-0,5	-1,298
3090,159	-0,5	-1,425
3099,974	-3	-2,747
3109,802	0,5	-0,3
3119,623	-5,5	-3,427
3129,45	1,5	-0,008
3139,266	-6	-3,497
3149,081	2	-0,001
3158,903	-6	-3,248
3168,736	0	-0,934
3178,558	-1,5	-2,102
3188,385	-1	-1,946
3198,207	0	-1,084
3208,034	-3	-3,053
3217,849	0,5	-0,168
3227,671	-5,5	-3,453
3235,536	1,5	0

File: _5.txt
Time (s)	Load (N)	Displacement (mm)
108,365	-3	-1,385
112,169	-14	-3,5
115,972	-8,5	-2,854
119,794	0	-0,65
123,598	1	-0,065
127,396	-8,5	-2,31
131,199	-13,5	-3,479
135,003	-3	-1,621
138,801	1,5	-0,005
142,611	-3,5	-1,425
146,409	-14	-3,498
150,212	-5,5	-2,322
154,022	2	-0,001
157,844	0	-0,578
161,666	-12	-2,927
165,481	-12	-3,406
169,294	-1,5	-1,11
173,095	2	-0,012
176,911	-3,5	-1,536
289,326	-13	-3,485
293,148	-3,5	-1,887
296,97	1,5	-0,001
300,798	-0,5	-0,79
304,619	-12	-3,112
308,423	-9,5	-3,258
312,251	-0,5	-0,86
316,061	1,5	-0,056
319,865	-6	-2,14
323,681	-12,5	-3,492
327,508	-4	-2,082
331,324	1,5	-0,001
335,14	-0,5	-0,833
338,956	-12,5	-3,291
342,777	-9	-3,193
346,587	0	-0,85
350,409	1,5	-0,037
354,219	-5	-2,05
358,034	-12,5	-3,492
542,908	-12	-3,382
546,712	-7,5	-2,982
550,521	1	-0,49
554,331	1,5	-0,12
558,159	-6	-2,407
561,963	-11,5	-3,471
565,779	-2	-1,467
569,594	2	-0,006
573,404	-2	-1,506
577,22	-12	-3,499
581,036	-6	-2,656
584,833	2	-0,143
588,643	0,5	-0,338
592,453	-7,5	-2,677
596,281	-11,5	-3,461
600,097	-2,5	-1,446
603,906	2	-0,007
607,716	-2	-1,562
611,526	-12	-3,498
868,695	-2,5	-1,904
872,511	2	-0,001
876,333	0	-0,792
880,143	-10,5	-3,099
883,952	-8	-3,268
887,768	0	-0,715
891,572	1,5	-0,078
895,376	-6,5	-2,437
899,179	-11	-3,462
902,995	-2	-1,537
906,805	2	-0,005
910,609	-2	-1,468
914,419	-11,5	-3,499
918,228	-4,5	-2,517
922,044	2	-0,083
925,854	0,5	-0,343
929,664	-8,5	-2,836
933,467	-10	-3,42
937,265	-1	-1,091
941,087	2	-0,015
944,897	-2,5	-1,67
948,713	-11,5	-3,498
952,528	-4	-2,391
956,338	2	0
960,148	0	-0,443
963,958	-8	-2,749
967,774	-10,5	-3,46
971,583	-1,5	-1,522
975,399	2	-0,005
979,215	-1,5	-1,414
983,025	-11	-3,499
986,84	-5	-2,68
990,656	1,5	-0,263
994,466	0	-0,256
998,282	-7	-2,579
1002,092	-11	-3,462
1005,901	-1,5	-1,449
1009,711	2	-0,007
1121,971	-4,5	-2,515
1125,793	2	-0,022
1129,602	0,5	-0,32
1133,412	-8	-2,738
1137,222	-10	-3,437
1141,026	-1	-1,193
1144,829	2	-0,017
1148,639	-2,5	-1,698
1152,449	-11	-3,497
1156,259	-3,5	-2,228
1738,489	-10,5	-3,498
1742,299	-4	-2,554
1746,103	1,5	-0,366
1749,907	1	-0,113
1753,717	-4,5	-2,166
1757,526	-10,5	-3,496
1761,324	-3	-2,291
1765,128	2	-0,101
1768,938	0,5	-0,191
1772,742	-5	-2,37
1776,551	-10,5	-3,492
1780,367	-3	-2,202
1784,171	2	-0,003
1787,981	0	-0,383
1791,784	-6,5	-2,672
1795,588	-10	-3,47
1799,392	-1,5	-1,701
1803,196	2	-0,002
1807,006	0	-0,843
1810,815	-9	-2,942
1814,619	-9	-3,41
1818,435	-1	-1,379
1822,239	2	-0,006
1826,036	-0,5	-1,188
1829,852	-10,5	-3,444
1833,656	-7	-3,197
1837,466	-0,5	-1,022
1841,276	2	-0,013
1845,073	-2	-1,598
1848,877	-10,5	-3,499
1852,687	-4,5	-2,725
1856,503	1	-0,538
1860,313	1,5	-0,077
1864,122	-3	-1,974
1867,926	-10,5	-3,497
1871,748	-4	-2,582
1875,552	1,5	-0,346
1879,355	1	-0,162
1883,165	-4,5	-2,276
1886,969	-10	-3,489
1890,773	-2,5	-2,054
1894,577	2	-0,001
1898,38	0	-0,509
1902,19	-7	-2,747
1905,988	-9,5	-3,456
1909,792	-2	-1,65
1913,595	2	-0,002
2134,221	2	-0,014
2138,025	-1,5	-1,558
2141,84	-10	-3,499
2145,65	-5	-2,919
2149,46	0	-0,708
2153,27	1,5	-0,033
2157,074	-3	-1,829
2160,889	-10	-3,498
2164,693	-3,5	-2,555
2168,503	1,5	-0,412
2172,313	1	-0,1
2176,123	-4	-2,254
2179,926	-10	-3,49
2183,73	-2	-1,963
2187,528	2	-0,001
2191,338	0	-0,774
2195,141	-9,5	-3,102
2198,951	-8	-3,402
2202,755	-1	-1,451
2206,559	2	-0,004
2210,363	-0,5	-1,082
2214,172	-10	-3,28
2217,976	-7	-3,275
2221,78	-0,5	-1,049
2225,59	2	-0,016
2229,393	-1,5	-1,554
2233,209	-10	-3,499
2237,013	-5	-2,9
2240,817	0	-0,728
2244,627	1,5	-0,039
2248,43	-2,5	-1,869
2252,234	-10	-3,498
2256,044	-4	-2,598
2259,854	1,5	-0,327
2263,657	1	-0,13
2267,455	-4,5	-2,371
2271,265	-10	-3,486
2275,075	-2,5	-2,025
2278,885	2	-0,001
2282,688	0	-0,535
2286,498	-7	-2,746
2290,308	-9,5	-3,464
2294,112	-1,5	-1,613
2297,922	2	-0,002
2301,725	0	-0,893
2305,529	-9	-3,081
2309,345	-8,5	-3,404
2313,149	-1	-1,325
2316,958	2	-0,005
2320,762	-1	-1,243
2324,566	-10	-3,419
2328,37	-6	-3,154
2332,174	-0,5	-0,998
2335,983	2	-0,012
2339,787	-1,5	-1,567
2343,591	-10	-3,499
2347,395	-4	-2,694
2423,488	-1,5	-1,601
2427,298	2	-0,002
2431,108	0	-0,849
2434,918	-9	-3,05
2438,721	-8,5	-3,4
2442,531	-1	-1,341
2446,341	2	-0,006
2450,151	-1	-1,203
2453,961	-10	-3,349
2457,764	-6	-3,193
2461,568	-0,5	-0,91
2465,372	2	-0,022
2469,17	-2	-1,698
2472,98	-10	-3,499
2476,795	-5	-2,849
2480,599	0	-0,623
2484,409	1,5	-0,057
2488,219	-3	-2,022
2492,022	-10	-3,495
2495,826	-3	-2,397
2499,636	2	-0,131
2503,44	0,5	-0,296
2507,25	-5,5	-2,522
2511,059	-9,5	-3,482
2514,863	-2	-1,838
2518,667	2	-0,001
2522,477	0	-0,705
2526,287	-8	-2,826
2530,09	-9	-3,446
2533,912	-1,5	-1,641
2537,704	2	-0,003
2541,508	-0,5	-1,029
2545,311	-9	-3,198
2549,115	-8	-3,346
2552,919	-1	-1,219
2556,723	2	-0,01
2560,539	-0,5	-1,226
2564,336	-10	-3,489
2568,14	-6	-3,148
2571,968	-0,5	-1,06
2575,766	2	-0,024
2579,569	-1,5	-1,666
2583,373	-10	-3,499
2587,177	-4,5	-2,717
2590,987	0,5	-0,57
2594,791	1,5	-0,083
2598,6	-3	-2,079
2602,41	-10	-3,496
2606,214	-3	-2,326
2610,018	2	0
2613,821	0	-0,826
2617,625	-7,5	-2,928
2621,429	-8,5	-3,416
2625,233	-1	-1,295
2629,037	2	-0,012
2632,846	-1,5	-1,627
2636,65	-10	-3,498
2748,856	2	-0,006
2752,654	-1	-1,402
2756,457	-9,5	-3,5
2760,267	-5,5	-3,16
2764,083	-0,5	-1,102
2767,881	2	-0,012
2771,684	-1	-1,459
2775,488	-9,5	-3,499
2779,298	-5	-3,017
2783,108	0,5	-0,667
3003,751	2	-0,02
3007,57	-1	-1,638
3011,371	-7,5	-3,499
3015,181	-3,5	-2,791
3018,984	0,5	-0,604
3022,794	1,5	-0,066
3026,604	-2	-2,124
3030,408	-7,5	-3,494
3034,205	-1,5	-2,05
3110,299	-6,5	-3,5
3114,115	-3,5	-2,926
3117,913	1,5	-0,496
3121,716	1,5	-0,114
3125,52	-2,5	-2,417
3129,324	-6,5	-3,478
3133,122	-1	-1,696
3136,92	2	-0,003
3140,729	0	-1,16
3144,545	-6,5	-3,5
3184,467	-1	-1,774
3188,277	2	-0,003
3192,08	0	-1,194
3195,884	-6,5	-3,5
3199,694	-3	-2,93
3203,372	2	-0,001