Folder: Data-filter--cyclical-tests-BEPE-project-/Cycling_tests/_30perc/_2gap/entrada

Note: README.md
# Data filter (cyclical tests BEPE project)
python aplication to treat data get by fatigue testing machine

File: _2.txt
Time (s)	Load (N)	Displacement (mm)
0	0,5	-0,024
13,149	-11,5	-2,196
26,192	-25,5	-3,464
39,542	-6	-1,346
52,021	-21	-2,691
64,872	-13,5	-2,234
77,243	-24	-3,497
89,903	-23	-3,466
102,282	-6,5	-1,931
114,531	4,5	-0,004
127,245	4,5	-0,032
139,334	-22,5	-3,5
151,027	4,5	-0,007
163,311	-6,5	-1,887
175,211	-6,5	-2,117
187,073	0	-0,844
199,252	-22	-3,496
210,987	4,5	-0,004
222,585	-21,5	-3,485
234,224	4,5	-0,044
245,857	-19,5	-3,418
257,647	5	-0,024
269,496	-21	-3,499
280,913	3,5	-0,131
292,085	0	-0,785
303,166	-12,5	-2,983
314,943	3	-0,221
326,163	-1,5	-1,223
337,532	-20	-3,498
349,328	4,5	-0,096
360,373	-7	-2,327
371,388	-19,5	-3,463
382,626	-5,5	-1,984
394,133	0,5	-0,718
405,154	-8	-2,482
415,924	-12	-3,03
426,705	-18,5	-3,436
438,158	0	-1,123
449,006	4	-0,136
459,865	5	-0,004
470,616	5	0
481,836	-10	-2,872
492,575	-15,5	-3,376
503,309	-18,5	-3,471
513,982	-19	-3,49
524,566	-18,5	-3,477
535,197	-18,5	-3,48
545,816	-18	-3,48
556,514	-18,5	-3,496
567,199	-18,5	-3,499
577,842	-18	-3,499
588,48	-18,5	-3,499
599,093	-18,5	-3,499
609,803	-17	-3,109
620,404	-18	-3,433
631,155	-11,5	-2,72
641,769	-13	-2,774
652,37	-13,5	-2,82
662,948	-16,5	-3,085
673,519	-18	-3,496
684,138	-18	-3,491
694,728	-18	-3,493
705,341	-17,5	-3,349
716,014	-12	-2,776
726,64	-9	-2,47
737,223	-9,5	-2,529
747,795	-8	-2,423
758,366	-6	-2,314
769,009	-3	-1,908
779,593	-2	-1,705
790,17	-1,5	-1,634
800,802	-1,5	-1,58
811,445	0	-1,159
822,01	0,5	-0,956
832,666	3	-0,336
843,321	4,5	-0,06
853,857	4,5	-0,044
864,404	4	-0,107
874,952	2	-0,459
885,529	3	-0,335
896,082	2,5	-0,42
906,576	1,5	-0,744
917,147	2	-0,618
927,628	0	-1,101
938,116	-1	-1,564
949,113	5	-0,021
959,655	5	-0,017
970,148	4,5	-0,057
980,617	4	-0,092
991,129	3,5	-0,152
1001,592	2	-0,537
1012,155	2,5	-0,371
1022,735	3	-0,229
1033,199	1,5	-0,629
1043,734	1	-0,833
1054,263	0,5	-0,995
1064,763	0	-1,155
1075,256	-1	-1,54
1085,821	-1,5	-1,535
1096,285	-4	-2,083
1106,802	-5,5	-2,21
1117,29	-7,5	-2,468
1127,813	-9	-2,587
1138,258	-15	-3,085
1148,728	-16	-3,31
1159,233	-16,5	-3,5
1169,655	-16	-3,492
1180,148	-16	-3,479
1190,701	-15,5	-3,456
1201,243	-15	-3,431
1211,724	-12	-3,293
1222,188	-7,5	-2,802
1232,621	-3,5	-2,026
1243,18	-2,5	-1,746
1253,704	-1,5	-1,403
1264,149	2	-0,644
1274,577	5	-0,048
1285,55	-3	-2,048
1296,086	-3	-1,93
1306,615	-2	-1,66
1317,09	-1	-1,291
1327,596	-0,5	-1,161
1338,071	1,5	-0,615
1348,48	5	-0,002
1358,926	5	-0,032
1369,341	2	-0,544
1379,745	-2	-1,751
1390,214	-5,5	-2,39
1400,666	-15,5	-3,343
1411,117	-15,5	-3,495
1421,574	-13	-3,401
1431,966	-3,5	-2,315
1442,405	-0,5	-1,233
1452,808	5	-0,019
1463,266	5	-0,006
1473,663	3	-0,19
1484,055	0	-1,104
1494,464	-4	-2,16
1504,987	-7	-2,449
1515,415	-15	-3,195
1525,824	-15	-3,498
1536,228	-15	-3,484
1546,631	-10,5	-3,281
1557,028	-3	-2,228
1567,396	0	-0,987
1577,769	5	-0,001
1588,155	4,5	-0,05
1598,528	1,5	-0,674
1608,878	-0,5	-1,387
1619,281	-6	-2,379
1629,708	-14,5	-3,106
1640,076	-15	-3,494
1650,485	-11,5	-3,357
1660,852	-3,5	-2,202
1671,19	0	-0,851
1681,522	5	-0,002
1691,967	5	-0,017
1702,328	2	-0,559
1712,708	-1	-1,723
1723,123	-7	-2,525
1733,496	-15	-3,5
1743,846	-15	-3,488
1754,237	-10	-3,249
1764,623	-3,5	-2,244
1774,99	-0,5	-1,069
1785,364	5	0
1795,719	5	-0,031
1806,062	1,5	-0,744
1816,472	-1,5	-1,805
1826,833	-10,5	-2,854
1837,242	-15	-3,499
1847,574	-14	-3,449
1857,911	-4,5	-2,509
1868,321	-1,5	-1,718
1878,664	2,5	-0,551
1889,139	5	0
1899,477	5	-0,027
1909,832	2	-0,533
1920,176	-1,5	-1,753
1930,513	-10	-2,814
1940,851	-15	-3,499
1951,164	-14	-3,468
1961,513	-7,5	-2,932
1971,845	-2,5	-2,025
1982,224	0	-0,962
1992,544	5	-0,001
2002,893	4,5	-0,041
2013,279	2	-0,394
2023,634	0	-1,294
2033,971	-8	-2,664
2044,321	-15	-3,5
2054,646	-15	-3,489
2065,008	-13,5	-3,436
2075,351	-5	-2,611
2085,712	-1,5	-1,65
2096,038	3,5	-0,535
2106,363	5	-0,006
2116,683	4	-0,117
2127,05	1,5	-0,653
2137,429	0	-1,248
2147,761	-4,5	-2,299
2158,188	-8	-2,664
2168,543	-14,5	-3,5
2178,875	-14,5	-3,491
2189,194	-10	-3,253
2199,514	-4,5	-2,467
2209,851	-1	-1,588
2220,177	0	-0,93
2230,514	5	-0,103
2240,87	5	-0,003
2251,231	5	-0,016
2261,586	3,5	-0,159
2271,93	1,5	-0,845
2282,309	0	-1,398
2292,634	-4,5	-2,326
2303,014	-12,5	-3,114
2313,351	-14,5	-3,492
2323,683	-7,5	-3,094
2334,038	-1,5	-1,718
2344,387	4,5	-0,314
2354,749	5	-0,007
2365,098	1,5	-0,565
2375,436	-3	-2,039
2385,821	-14	-3,273
2396,224	-14	-3,494
2406,55	-4,5	-2,673
2416,899	-0,5	-1,577
2427,225	5	0
2437,562	4,5	-0,074
2447,924	-0,5	-1,583
2458,285	-12,5	-3,075
2468,629	-13,5	-3,488
2478,948	-4,5	-2,676
2489,267	0	-1,132
2499,575	5	-0,001
2509,918	4,5	-0,043
2520,237	1	-0,852
2530,569	-2	-1,942
2540,906	-10,5	-2,912
2551,25	-13,5	-3,498
2561,587	-12,5	-3,455
2571,913	-4	-2,52
2582,232	0	-1,09
2592,641	4	-0,468
2602,979	5	-0,003
2613,322	4,5	-0,062
2623,666	1	-0,835
2634,069	-1	-1,863
2644,4	-13	-3,248
2654,726	-13,5	-3,481
2665,069	-4	-2,572
2675,413	0	-1,201
2685,744	5	0
2696,105	5	-0,025
2706,431	1	-0,904
2716,744	-7,5	-2,79
2727,124	-13	-3,496
2737,515	-12,5	-3,465
2747,834	-3	-2,254
2758,142	5	-0,285
2768,491	4,5	-0,032
2778,865	1,5	-0,843
2789,196	-1,5	-1,918
2799,551	-12	-3,09
2809,901	-12,5	-3,497
2820,226	-10,5	-3,396
2830,558	-4	-2,629
2840,907	-1	-1,561
2851,251	4	-0,536
2861,582	4,5	-0,032
2871,943	1	-1,008
2882,287	-3	-2,239
2892,654	-11	-3,5
2903,027	-11	-3,488
2913,353	-6	-3,143
2923,679	-2	-2,155
2934,004	0	-1,162
2944,317	5	-0,196
2954,631	5	-0,006
2964,962	3,5	-0,115
2975,281	1	-0,929
2985,595	-0,5	-1,924
2995,92	-10	-3,178
3006,234	-10	-3,493
3016,559	-4,5	-3,053
3026,885	-0,5	-1,488
3037,234	5	-0,003
3047,572	4,5	-0,055
3057,927	0,5	-1,225
3068,252	-2,5	-2,468
3078,589	-9	-3,499
3088,921	-9	-3,471
3099,234	-2	-2,442
3109,554	0,5	-0,934
3119,909	5	-0,001
3130,259	4,5	-0,023
3140,59	1,5	-0,66
3150,915	0	-1,939
3161,235	-6,5	-3,111
3171,561	-8,5	-3,495
3176,942	5	-0,001

File: _3.txt
Time (s)	Load (N)	Displacement (mm)
46,309	-18	-3,02
58,266	-1	-0,776
70,355	-18	-3,193
82,732	4	-0,001
94,444	-22,5	-3,47
106,431	4	-0,016
118,676	-22,5	-3,285
130,178	2,5	-0,198
141,661	-3	-1,156
153,931	0	-0,647
165,42	1	-0,685
339,68	-7	-2,262
350,485	-5	-1,92
361,164	-0,5	-0,911
371,928	4,5	-0,185
382,697	4,5	-0,002
393,407	4,5	-0,031
403,978	-2	-1,199
414,628	-9,5	-2,262
425,655	-3,5	-1,477
436,052	-19,5	-3,498
446,492	-8,5	-2,526
457,033	2,5	-0,609
467,989	-0,5	-1,023
478,59	4,5	-0,001
488,945	0	-0,922
499,373	-18,5	-3,063
510,058	-19,5	-3,498
520,377	-5,5	-2,121
530,763	4,5	-0,001
541,106	-0,5	-1,017
551,54	-19,5	-3,376
561,811	-9,5	-2,639
572,119	4,5	0
582,444	0	-0,803
592,781	-19	-3,401
603,107	-10	-2,718
613,384	4,5	-0,001
623,608	-4,5	-1,73
633,813	-18,5	-3,463
644,12	-0,5	-0,982
654,404	3,5	-0,113
664,717	-14,5	-2,647
674,977	-11	-3,1
685,356	3	-0,564
695,657	2	-0,253
705,959	-17,5	-3,013
716,188	-9,5	-2,757
726,448	4,5	-0,001
736,755	-1	-1,183
747,08	-19	-3,498
757,43	-6	-2,333
767,677	4,5	-0,005
777,979	-5,5	-1,954
788,208	-16,5	-3,42
798,48	0,5	-0,835
808,739	1	-0,53
818,98	-18	-3,499
829,216	-3,5	-1,81
839,409	3,5	-0,082
849,579	-18	-3,483
859,838	-6,5	-2,412
870,086	4,5	-0,004
880,297	-6,5	-2,113
890,562	-17	-3,453
900,84	-1	-1,079
911,147	4,5	-0,031
921,389	-11	-2,608
931,492	-8,5	-2,66
941,715	4,5	-0,002
951,885	-5,5	-2,127
962,066	-16	-3,413
972,236	4,5	-0,015
982,369	-3,5	-1,736
992,55	-16,5	-3,44
1002,648	5	0
1012,805	-2	-1,528
1023,011	-17,5	-3,488
1033,15	1,5	-0,652
1043,26	-0,5	-1,188
1053,399	-17,5	-3,481
1063,55	1,5	-0,628
1074,266	4,5	-0,001
1084,447	-3,5	-1,819
1094,551	-10,5	-3,104
1104,792	4,5	-0,197
1114,901	-3,5	-1,68
1125,065	-16	-3,442
1135,163	4,5	-0,001
1145,338	-3	-1,659
1155,417	-14,5	-3,362
1165,647	4,5	-0,228
1175,768	-3	-1,596
1185,883	-15,5	-3,436
1196,023	4,5	-0,112
1206,228	0	-1,054
1216,422	-17,5	-3,496
1226,597	-0,5	-1,017
1236,718	0	-0,959
1246,84	-17,5	-3,49
1257,016	0	-0,87
1267,149	0	-0,898
1277,331	-17,5	-3,498
1287,596	-3	-1,883
1297,801	4,5	-0,008
1307,952	-9	-2,461
1318,062	-8,5	-2,768
1328,189	4,5	-0,003
1338,347	-7,5	-2,34
1348,48	-10,5	-3,041
1358,602	4,5	-0,001
1368,801	-2,5	-1,6
1378,958	-16,5	-3,477
1389,098	2,5	-0,536
1399,201	-0,5	-1,146
1409,287	-16,5	-3,482
1419,372	4	-0,386
1429,452	-1,5	-1,379
1439,573	-16	-3,472
1449,628	4,5	-0,107
1459,702	-5	-2,042
1469,781	-10	-2,967
1479,861	4,5	-0,007
1489,922	-15,5	-3,106
1499,953	-3	-1,797
1510,021	2	-0,3
1520,076	-17	-3,496
1530,127	3,5	-0,479
1540,199	-1	-1,408
1550,255	-14,5	-3,378
1560,352	4,5	0
1570,366	-5,5	-2,236
1580,403	-6	-2,717
1590,464	4,5	-0,012
1600,526	-16,5	-3,269
1610,605	-3,5	-1,905
1620,667	2	-0,278
1630,692	-16,5	-3,493
1640,753	4,5	-0,234
1650,743	-6,5	-2,277
1660,781	-5	-2,336
1670,872	4	-0,066
1680,885	-16,5	-3,497
1690,917	4,5	-0,428
1701,008	-3	-1,656
1710,997	-8,5	-2,877
1721,065	4,5	-0,01
1731,15	-15,5	-3,131
1741,182	-2	-1,522
1751,159	-0,5	-1,143
1761,167	-11	-3,263
1771,156	4,5	-0,006
1781,229	-12	-2,743
1791,315	-6,5	-2,605
1801,358	4	-0,035
1811,366	-16,5	-3,499
1821,445	-0,5	-0,996
1831,465	-1,5	-1,351
1841,484	-12,5	-3,356
1851,527	4,5	-0,002
1861,511	-15	-3,142
1871,524	-2	-1,57
1881,58	1	-0,571
1891,611	-16	-3,488
1901,619	4,5	-0,001
1911,638	-10	-2,642
1921,633	-3	-1,843
1931,743	3	-0,201
1941,805	-16	-3,496
1951,782	4,5	-0,012
1961,867	-3,5	-1,908
1971,863	-7	-2,634
1981,864	4,5	-0,054
1991,872	-16	-3,499
2001,903	0,5	-0,719
2011,922	-2	-1,656
2021,912	-8	-2,845
2031,895	4	-0,04
2041,879	-16	-3,497
2051,868	4	-0,338
2061,857	-4,5	-2,014
2071,865	-6	-2,635
2081,866	4	-0,049
2091,856	-16	-3,498
2101,911	2,5	-0,659
2111,888	-3,5	-1,766
2121,944	-9,5	-3,134
2132,03	4,5	-0,003
2142,055	-12,5	-2,897
2152,038	-2	-1,606
2162,028	0	-0,765
2172,017	-13,5	-3,432
2182,049	4,5	-0,001
2192,056	-11	-2,772
2202,063	-2,5	-1,937
2212,047	1	-0,598
2222,054	-15	-3,475
2232,062	4,5	-0,001
2242,105	-7,5	-2,38
2252,082	-3,5	-2,066
2262,06	1,5	-0,322
2272,061	-15,5	-3,49
2282,063	4,5	-0,018
2292,064	-7,5	-2,47
2302,048	-3,5	-2,086
2312,043	4	-0,082
2322,069	-15,5	-3,496
2332,052	-1,5	-1,506
2342,054	0,5	-0,595
2352,067	-15	-3,482
2362,044	4,5	-0,001
2372,058	-8,5	-2,602
2382,071	-2,5	-1,844
2392,049	1	-0,582
2402,044	-15	-3,481
2412,04	4,5	-0,004
2422,035	-4	-2,018
2432,066	-9,5	-3,14
2442,05	4,5	-0,013
2452,093	-15,5	-3,328
2462,112	-1,5	-1,346
2472,108	0	-1,079
2482,17	-15	-3,464
2492,165	4,5	-0,002
2502,142	-15	-3,128
2512,126	-1	-1,286
2522,109	0	-1,03
2532,135	-14,5	-3,437
2542,13	4,5	-0,002
2552,179	-11	-2,731
2562,163	-4,5	-2,281
2572,128	1,5	-0,308
2582,124	-15	-3,493
2592,101	4,5	-0,022
2602,078	-7,5	-2,366
2612,05	-3,5	-2,172
2622,063	2,5	-0,233
2632,119	-15	-3,497
2642,102	4,5	-0,348
2652,134	-3	-1,823
2662,123	-7	-2,833
2672,202	4,5	-0,004
2682,264	-10	-2,745
2692,242	-3	-2,058
2702,219	2,5	-0,209
2712,19	-15	-3,496
2722,168	3	-0,556
2732,205	-1	-1,368
2742,207	-12,5	-3,412
2752,202	5	-0,002
2762,173	-10,5	-2,84
2772,193	-3,5	-2,184
2782,194	3,5	-0,112
2792,196	-14,5	-3,498
2802,179	0,5	-0,785
2812,156	-0,5	-1,422
2822,134	-10,5	-3,319
2832,153	4,5	-0,002
2842,161	-12,5	-2,928
2852,156	-2	-1,727
2862,14	1	-0,45
2872,105	-13,5	-3,484
2882,083	4,5	0
2892,072	-4,5	-2,236
2902,067	-7	-2,927
2912,057	4,5	-0,008
2922,04	-12,5	-3,179
2932,042	-2	-1,709
2942,031	1	-0,726
2952,026	-12,5	-3,482
2962,034	4,5	-0,022
2972,03	-3	-2,07
2982,109	-8	-3,185
2992,086	4,5	-0,008
3002,088	-10,5	-3,055
3012,083	-1,5	-1,716
3022,067	1,5	-0,388
3032,062	-12,5	-3,495
3042,057	4,5	-0,32
3052,065	-1,5	-1,758
3062,042	-6	-2,956
3072,098	4,5	-0,004
3082,123	-8,5	-2,886
3092,113	-2	-1,902
3102,078	1,5	-0,584
3112,068	-10	-3,481
3122,117	4,5	-0,131
3132,094	-2,5	-2,22
3142,108	-3,5	-2,592
3152,097	3,5	-0,061
3162,08	-9,5	-3,498
3172,058	3,5	-0,52
3182,065	-1	-1,839
3192,037	-3,5	-2,724
3202,05	4	-0,039
3212,016	-9,5	-3,498
3221,987	1,5	-0,684
3231,964	0	-1,65
3241,954	-4,5	-3,062
3251,931	4,5	-0,015
3256,479	4,5	-0,001

File: _4.txt
Time (s)	Load (N)	Displacement (mm)
46,914	2	-0,01
49,217	2	-0,001
51,588	-3,5	-1,09
53,941	-11	-2,095
56,268	-18,5	-2,996
58,656	-25,5	-3,489
61,122	-22	-2,884
63,425	-13	-1,971
65,652	-9	-1,489
67,932	-3	-0,766
70,301	2	-0,034
72,581	2,5	-0,003
74,879	2	-0,155
77,201	-4	-1,086
79,889	-25	-3,474
82,139	-25	-3,497
84,352	-25	-3,5
86,656	-18,5	-2,618
88,96	-9,5	-1,706
134,335	2,5	-0,058
136,555	0,5	-0,582
138,769	-2,5	-1,035
141,043	-6,5	-1,685
143,15	-5	-1,577
145,405	-10	-2,23
147,607	-13,5	-2,606
150,361	-23,5	-3,131
152,569	-19	-2,698
154,848	-12,5	-2,052
157,062	-8,5	-1,619
159,258	-5,5	-1,278
161,532	-0,5	-0,369
163,808	2	-0,06
166,056	3	-0,006
168,33	2,5	-0,001
170,61	2	-0,382
172,931	-5	-1,442
175,169	-7	-1,89
339,74	-15	-3,106
341,864	-15	-3,083
343,958	-12,5	-2,786
346,075	-11,5	-2,643
348,205	-11	-2,553
350,311	-10	-2,423
352,404	-7,5	-2,127
354,439	-4,5	-1,58
356,527	-3,5	-1,339
358,627	-3	-1,11
360,774	-3	-1,175
362,832	-0,5	-0,8
364,962	-0,5	-0,78
367,044	1	-0,536
369,12	3	-0,357
371,226	3	-0,16
373,35	3	0
375,45	3	-0,001
377,544	3	-0,002
494,933	3	-0,307
497,015	3,5	-0,004
498,995	3,5	-0,004
500,986	3	-0,038
503,008	0,5	-0,206
505,03	-1	-0,763
507,034	-4,5	-1,386
509,051	-8,5	-1,976
511,042	-16	-2,702
513,112	-19	-3,002
515,122	-21,5	-3,5
517,114	-21,5	-3,494
519,147	-21	-3,472
521,193	-18,5	-3,367
523,197	-12	-2,793
525,207	-7,5	-2,242
527,217	-4,5	-1,726
529,257	-3	-1,184
568,633	-9	-2,06
570,607	-16,5	-2,849
572,593	-21,5	-3,5
574,572	-21,5	-3,496
576,577	-20,5	-3,467
578,574	-15,5	-3,234
580,602	-11	-2,691
582,612	-6,5	-2,082
584,58	-3	-1,316
586,578	0,5	-0,641
588,557	3	-0,001
590,514	3,5	-0,009
592,457	1,5	-0,138
594,437	-1,5	-0,838
596,459	-4	-1,372
598,439	-10	-2,142
600,431	-17	-2,868
602,405	-21,5	-3,5
604,421	-21,5	-3,497
606,461	-21	-3,486
608,429	-17,5	-3,325
610,402	-9,5	-2,575
612,406	-6	-1,957
614,426	-3,5	-1,403
616,426	-0,5	-0,765
618,424	3,5	-0,096
620,488	3,5	-0,001
622,498	3	-0,006
624,477	3	-0,048
626,487	0,5	-0,327
628,461	-2,5	-1,127
630,471	-5,5	-1,623
632,499	-9,5	-2,107
634,521	-15	-2,657
636,531	-21	-3,271
638,553	-21	-3,499
640,526	-21	-3,486
642,506	-18	-3,356
681,984	1,5	-0,126
683,982	-0,5	-0,701
685,968	-3,5	-1,358
687,966	-9	-2,063
690	-13	-2,548
691,992	-20,5	-3,312
693,947	-21	-3,497
695,951	-20	-3,476
697,961	-18	-3,35
699,929	-10,5	-2,685
701,915	-5,5	-1,94
703,949	-4	-1,492
705,923	0	-0,702
707,903	3	0
709,895	3	-0,004
711,874	2,5	-0,04
713,866	0	-0,403
715,84	-2,5	-1,166
717,844	-6,5	-1,795
719,818	-12,5	-2,505
721,804	-21	-3,198
723,766	-21	-3,498
725,776	-20,5	-3,479
727,774	-17	-3,352
729,856	-15,5	-3,232
731,847	-10	-2,605
733,845	-6	-1,984
735,819	-3	-1,246
737,805	0,5	-0,607
739,761	3,5	-0,001
741,765	3,5	-0,007
743,751	2,5	-0,063
745,754	0	-0,416
747,76	-1,5	-1,012
749,738	-6	-1,762
751,718	-12	-2,44
753,722	-19	-3,012
830,14	-20	-3,388
832,126	-20	-3,498
834,064	-19,5	-3,463
836,067	-14,5	-3,238
838,029	-9	-2,532
840,051	-5,5	-2,047
842,013	-2,5	-1,206
843,976	2,5	-0,469
845,955	3,5	-0,001
847,929	3,5	-0,01
849,981	3	-0,023
851,949	1	-0,187
853,934	-1,5	-0,888
855,926	-6	-1,612
857,894	-14	-2,598
859,856	-20,5	-3,5
861,812	-20	-3,494
863,798	-19,5	-3,451
865,76	-12	-2,894
867,74	-6,5	-2,215
869,695	-3	-1,393
871,681	0	-0,781
873,673	3	-0,205
875,635	3	-0,004
877,603	3	-0,034
879,577	0,5	-0,348
881,575	-1	-0,862
883,543	-5,5	-1,649
885,582	-8,5	-2,062
887,563	-15,5	-2,737
889,579	-20	-3,272
891,558	-20,5	-3,499
893,55	-20	-3,488
895,5	-17	-3,382
897,474	-10,5	-2,768
899,454	-5,5	-2,014
901,44	-3	-1,343
903,414	1,5	-0,531
905,369	3	-0,001
907,373	3	-0,008
909,365	2,5	-0,061
911,321	-0,5	-0,627
913,307	-3	-1,362
915,305	-7,5	-2,042
917,285	-15,5	-2,828
919,265	-20	-3,5
921,226	-20	-3,494
923,194	-18,5	-3,429
925,186	-13	-2,999
927,172	-7	-2,276
929,128	-3	-1,426
931,114	0	-0,739
933,07	3,5	-0,001
935,05	3	-0,006
937,006	2	-0,095
938,967	-0,5	-0,805
940,923	-5	-1,712
1053,687	2,5	-0,359
1055,613	3,5	-0,003
1057,557	3	-0,046
1059,549	0	-0,412
1061,516	-2	-1,163
1063,461	-7,5	-2,017
1065,428	-15	-2,778
1067,39	-19,5	-3,5
1069,34	-20	-3,493
1071,32	-18,5	-3,447
1073,312	-12	-2,997
1075,262	-6	-2,118
1077,224	-2,5	-1,29
1079,185	2	-0,445
1081,135	3	-0,002
1083,103	3	-0,015
1085,065	1	-0,198
1087,003	-2,5	-1,132
1088,983	-7	-1,976
1090,921	-15	-2,814
1092,907	-19,5	-3,471
1094,869	-19,5	-3,496
1096,836	-19	-3,465
1098,786	-13	-3,089
1100,736	-6,5	-2,275
1102,686	-3	-1,452
1104,648	1	-0,591
1106,604	3,5	-0,001
1108,578	3,5	-0,007
1110,534	2	-0,103
1112,514	0	-0,656
1114,499	-2,5	-1,263
1116,479	-7	-2,002
1118,423	-15,5	-2,873
1120,397	-19,5	-3,499
1122,407	-19,5	-3,496
1124,339	-17	-3,396
1126,314	-11,5	-2,852
1128,275	-5,5	-2,056
1130,285	-3	-1,436
1132,289	-0,5	-0,817
1134,232	3,5	-0,001
1136,17	3,5	-0,01
1138,126	1,5	-0,15
1140,088	-1,5	-0,951
1142,014	-6,5	-1,933
1144,012	-12	-2,57
1145,974	-19,5	-3,387
1147,966	-19,5	-3,498
1149,934	-18	-3,468
1151,895	-13	-3,06
1153,881	-7,5	-2,357
1155,861	-3,5	-1,614
1157,823	-0,5	-0,812
1159,767	3	-0,001
1161,729	3,5	-0,008
1163,673	1,5	-0,138
1165,665	-0,5	-0,683
1167,65	-3	-1,359
1169,63	-8	-2,144
1171,58	-17,5	-3,018
1173,554	-19,5	-3,499
1175,516	-19,5	-3,491
1177,484	-16,5	-3,373
1179,452	-10,5	-2,802
1181,396	-5	-1,906
1183,364	-2	-1,169
1185,343	1,5	-0,529
1187,311	3,5	-0,001
1189,315	3,5	-0,007
1191,325	3	-0,036
1193,287	0	-0,419
1195,219	-3,5	-1,408
1197,211	-7	-2,043
1199,167	-14	-2,768
3168,23	0,5	-0,814
3170,168	-1	-1,742
3172,1	-5	-2,757
3174,032	-9	-3,499
3175,976	-9	-3,475
3177,902	-4,5	-2,952
3179,833	-1,5	-1,82
3181,777	0	-0,842
3183,709	3,5	-0,001
3185,659	3	-0,012
3187,603	0,5	-0,316
3189,547	0	-1,282
3191,479	-3	-2,362
3193,405	-9	-3,495
3195,349	-9	-3,489
3196,609	3,5	0