Folder: Data-filter--cyclical-tests-BEPE-project-/ensaios_Ciclicos/_newS/_4G30/entrada

Note: README.md
# Data filter (cyclical tests BEPE project)
python aplication to treat data get by fatigue testing machine

File: _1.txt
Time (s)	Load (N)	Displacement (mm)
0	-0,22	-0,031
10,726	0,74	-0,438
21,334	2,06	-0,204
31,923	2,4	-0,001
42,537	2,68	-0,007
53,145	2,7	-0,021
63,777	2,54	-0,042
74,371	-0,08	-0,253
85,002	-2,58	-0,579
95,64	-3,32	-0,768
106,259	-6,5	-1,15
116,89	-6,66	-1,177
127,522	-7,36	-1,357
138,147	-10,4	-1,614
148,785	-11,3	-1,85
159,428	-12,26	-1,905
170,089	-10,66	-1,728
180,757	-8,18	-1,5
191,412	-8,26	-1,433
202,062	-7,08	-1,374
212,717	-3,54	-0,944
223,378	-3,48	-0,943
234,016	-1,4	-0,636
244,665	-0,86	-0,53
255,332	2,16	-0,173
265,994	3,88	-0,064
276,673	4,34	-0,032
287,317	2,64	-0,128
297,984	-2,3	-0,779
308,675	-8,44	-1,589
319,349	-16,56	-2,554
330,01	-23,42	-3,5
340,684	-23,24	-3,478
351,339	-22,16	-3,445
362,006	-22,94	-3,471
372,662	-23,08	-3,474
383,335	-20,18	-3,37
394,021	-18,6	-3,352
404,694	-11,44	-2,563
415,343	-6,12	-1,827
426,017	-0,9	-1,176
436,696	4,54	-0,642
447,363	5,18	-0,022
458,019	5,28	-0,007
468,704	4,28	-0,078
479,366	-2,72	-0,966
490,051	-6,3	-1,45
500,712	-8,32	-1,687
511,374	-5,04	-1,334
522,041	-4,52	-1,229
532,721	-2,52	-0,934
543,382	-0,12	-0,56
554,043	0,06	-0,575
564,741	-0,88	-0,729
575,402	-0,1	-0,604
586,082	-3,6	-1,123
596,761	-9,92	-1,888
607,428	-10,24	-2,046
618,102	-10,6	-2,016
628,787	-11,02	-2,118
639,448	-14,9	-2,525
650,134	-14,78	-2,472
660,819	-17,56	-2,702
671,499	-15,08	-2,428
682,172	-14,86	-2,516
692,839	-14,68	-2,42
703,507	-16,1	-2,622
714,168	-22,02	-3,29
724,83	-22,08	-3,5
735,509	-22,02	-3,499
746,182	-21,9	-3,486
756,838	-21,48	-3,202
767,499	-21,78	-3,238
778,191	-19,62	-2,908
788,852	-21,84	-3,267
799,525	-21,9	-3,499
810,181	-21,94	-3,494
820,842	-21,42	-3,472
831,516	-21,72	-3,491
842,177	-21,26	-3,466
852,85	-21,6	-3,489
863,512	-21,14	-3,466
874,173	-20,26	-3,419
884,822	-20,98	-3,46
895,478	-21,16	-3,466
906,133	-20,48	-3,45
916,807	-20,6	-3,466
927,456	-20,34	-3,453
938,111	-20,4	-3,454
948,767	-20,08	-3,421
959,434	-19,96	-3,429
970,102	-20,86	-3,466
980,781	-20,82	-3,468
991,46	-20,74	-3,462
1002,134	-20,12	-3,444
1012,801	-20,8	-3,466
1023,469	-20,88	-3,474
1034,13	-20,8	-3,469
1044,785	-21,04	-3,477
1055,465	-21,16	-3,49
1066,138	-21,06	-3,495
1076,812	-20,88	-3,496
1087,473	-20,84	-3,496
1098,14	-20,66	-3,494
1108,79	-20,5	-3,496
1119,451	-20,26	-3,497
1130,124	-19,88	-3,499
1140,774	-19,66	-3,5
1151,453	-19,32	-3,5
1162,103	-19,08	-3,499
1172,77	-18,72	-3,332
1183,426	-18,52	-3,284
1194,093	-15,14	-2,741
1204,754	-9,82	-2,356
1215,416	-7,58	-2,111
1226,083	-5,52	-1,786
1236,762	-4,14	-1,652
1247,43	-2,1	-1,391
1258,103	-0,92	-1,074
1268,765	0,6	-0,802
1279,414	1,34	-0,647
1290,093	3,02	-0,32
1300,791	4,98	-0,106
1311,458	5,76	-0,046
1322,108	5,74	-0,06
1332,775	6,14	-0,021
1343,424	6,28	-0,012
1354,098	6,28	-0,007
1364,753	6,28	-0,008
1375,396	6,26	-0,01
1386,052	6,22	-0,011
1396,701	6,2	-0,017
1407,351	6,12	-0,016
1418,006	6,18	-0,016
1428,667	6,24	-0,009
1439,329	6,24	-0,006
1449,99	6,22	-0,004
1460,646	6,24	-0,006
1471,307	6,2	-0,002
1481,956	6,2	-0,002
1492,642	6,18	-0,001
1503,315	6,14	-0,001
1513,977	6,16	-0,001
1524,638	6,18	-0,001
1535,287	6,16	-0,002
1545,937	6,14	-0,001
1556,604	6,08	-0,064
1567,271	5,24	-0,389
1577,933	3,9	-0,578
1588,582	4,34	-0,621
1599,262	1,24	-1,074
1609,923	1,2	-1,082
1620,566	0,26	-1,164
1631,246	-1,18	-1,388
1641,907	-1,88	-1,534
1652,563	-1,6	-1,474
1663,242	-1,36	-1,465
1673,891	-0,46	-1,308
1684,565	-1,68	-1,523
1695,238	-2,24	-1,6
1705,9	-2,24	-1,655
1716,567	-2,34	-1,734
1727,234	-2,66	-1,847
1737,902	-3,4	-1,973
1748,575	-2,96	-1,838
1759,237	-2,76	-1,798
1769,874	-2,32	-1,738
1780,535	-3,14	-1,932
1791,221	-4,58	-2,261
1801,888	-4,8	-2,388
1812,543	-4,56	-2,334
1823,199	-4,58	-2,268
1833,872	-6,08	-2,575
1844,528	-6,36	-2,76
1855,207	-6,58	-2,862
1865,869	-8,58	-3,044
1876,548	-9,72	-3,238
1887,203	-9,06	-3,246
1897,865	-8,52	-3,147
1908,532	-8,54	-3,142
1919,211	-8,98	-3,23
1929,873	-9,74	-3,282
1940,522	-7,62	-3,04
1951,184	-8,34	-3,1
1961,845	-10,18	-3,366
1972,494	-9,22	-3,332
1983,15	-11,34	-3,422
1993,817	-11,48	-3,443
2004,478	-11,88	-3,455
2015,146	-12,16	-3,473
2025,807	-12	-3,473
2036,481	-12,04	-3,48
2047,148	-12,16	-3,488
2057,791	-12,18	-3,494
2068,465	-12,14	-3,497
2079,144	-12,08	-3,498
2089,836	-12	-3,499
2100,491	-11,98	-3,499
2111,17	-11,9	-3,499
2121,838	-11,86	-3,5
2132,487	-11,8	-3,5
2143,161	-11,76	-3,372
2153,798	-11,72	-3,327
2164,465	-11,68	-3,206
2175,121	-9,78	-2,945
2185,776	-7,46	-2,713
2196,414	-7,48	-2,692
2207,099	-7,74	-2,438
2217,766	-4,56	-2,224
2228,416	-4,24	-2,154
2239,071	-4,24	-2,146
2249,738	-3,96	-2,088
2260,388	-5,78	-2,369
2271,055	-4,44	-2,146
2281,735	-3,64	-2,022
2292,39	-4,2	-2,136
2303,039	-3,36	-1,943
2313,701	-4,4	-2,213
2324,368	-5,1	-2,356
2335,018	-6,84	-2,622
2345,673	-8,16	-2,783
2356,358	-8,48	-2,931
2367,014	-7,7	-2,718
2377,681	-5,36	-2,443
2388,331	-6,32	-2,524
2398,98	-4,74	-2,305
2409,641	-5,2	-2,314
2420,291	-4,42	-2,144
2430,946	-3,4	-1,979
2441,596	-3,12	-1,985
2452,263	-2,86	-1,837
2462,918	-2,46	-1,785
2473,574	-2,94	-1,882
2484,235	-2,62	-1,828
2494,914	-1,98	-1,677
2505,576	-1,64	-1,504
2516,225	-1,22	-1,254
2526,887	0,06	-1,034
2537,548	0,36	-0,875
2548,221	0,2	-0,875
2558,865	0,22	-0,974
2569,514	-0,16	-1,069
2580,176	0,16	-0,876
2590,837	0,98	-0,614
2601,486	1,08	-0,656
2612,16	1,52	-0,45
2622,815	1,38	-0,511
2633,477	1,48	-0,414
2644,132	1,6	-0,408
2654,799	2,7	-0,216
2665,461	3,52	-0,122
2676,14	3,66	-0,092
2686,802	4,12	-0,063
2697,469	4,04	-0,06
2708,13	4,28	-0,047
2718,822	4,9	-0,015
2729,459	4,88	-0,018
2740,12	4,76	-0,025
2750,764	4,34	-0,051
2761,431	4,66	-0,03
2772,081	4,66	-0,025
2782,748	4,76	-0,016
2793,421	4,92	-0,01
2804,095	4,98	-0,002
2814,768	4,98	-0,001
2825,424	4,98	-0,001
2836,079	4,98	-0,001
2846,752	4,94	-0,181
2857,426	4,12	-0,316
2868,087	3,92	-0,441
2878,755	3,44	-0,552
2889,428	2,12	-0,694
2900,107	0,4	-1,036
2910,775	0,42	-1,068
2921,436	0,96	-0,996
2932,091	0,1	-1,207
2942,765	0	-1,194
2953,42	0,06	-1,16
2964,076	0,08	-1,265
2974,737	-0,6	-1,522
2985,404	-1,44	-1,804
2996,06	-2,24	-2,063
3006,727	-2,94	-2,329
3017,371	-3,2	-2,433
3028,032	-2,94	-2,36
3038,681	-3,68	-2,555
3049,343	-3,68	-2,533
3060,01	-3,7	-2,576
3070,684	-3,78	-2,578
3081,345	-3,32	-2,512
3092	-2,86	-2,333
3102,674	-2,74	-2,257
3113,329	-2,32	-2,097
3123,979	-1,9	-1,958
3134,634	-1,9	-1,936
3145,283	-1,44	-1,825
3155,945	-1,34	-1,81
3166,594	-1,28	-1,7
3177,249	-1,26	-1,666
3187,911	-1,46	-1,865
3198,104	4,8	-0,001

File: _2.txt
Time (s)	Load (N)	Displacement (mm)
0	-0,14	-0,031
10,726	-1,4	-0,677
21,345	-2,08	-0,852
31,959	-2	-0,922
42,608	-0,68	-0,725
53,24	2,08	-0,53
63,889	2,36	-0,439
74,562	1,88	-0,458
85,206	1,64	-0,515
95,843	2,62	-0,46
106,474	2,24	-0,535
117,124	0,76	-0,706
127,785	-1,2	-0,947
138,441	-3	-1,169
149,132	-5,42	-1,56
159,805	-4,76	-1,462
170,486	-7,44	-1,826
181,128	-8,44	-1,986
191,82	-10,68	-2,341
202,487	-11,28	-2,452
213,16	-12,18	-2,477
223,864	-14,78	-2,79
234,567	-17,22	-3,06
245,258	-18,48	-3,201
255,95	-18,96	-3,21
266,635	-18,16	-3,141
277,327	-21,86	-3,418
288,006	-21,3	-3,39
298,679	-17,02	-3,106
309,371	-16,56	-3,05
320,062	-15,42	-3,032
330,772	-20,44	-3,356
341,451	-18,78	-3,247
352,148	-22,52	-3,445
362,84	-22,48	-3,462
373,531	-21,66	-3,42
384,217	-16,24	-3,155
394,914	-17,34	-3,198
405,605	-13,66	-2,781
416,279	-12,64	-2,631
426,964	-10,68	-2,433
437,649	-9,66	-2,364
448,335	-11,4	-2,544
459,002	-10,58	-2,449
469,694	-10,72	-2,568
480,373	-10,36	-2,491
491,052	-8,94	-2,322
501,75	-11,08	-2,573
512,429	-9,8	-2,414
523,115	-8,52	-2,175
533,812	-8	-2,133
544,503	-2,02	-1,281
555,189	4,74	-0,429
565,862	5,42	-0,299
576,56	4,94	-0,37
587,245	5,64	-0,001
597,942	5,66	-0,002
608,628	5,66	-0,002
619,319	5,66	-0,001
630,01	5,6	-0,219
640,69	5,32	-0,313
651,381	5,32	-0,32
662,073	5,76	-0,002
672,77	5,72	-0,014
683,461	4,46	-0,102
694,159	-1,66	-0,839
704,832	-6,66	-1,571
715,518	-7,3	-1,614
726,227	-4,1	-1,244
736,912	-7,4	-1,633
747,598	-12,54	-2,249
758,283	-17,22	-2,766
768,968	-21,98	-3,451
779,666	-22,1	-3,498
790,369	-21,94	-3,495
801,055	-21,92	-3,497
811,734	-21,94	-3,497
822,425	-21,84	-3,49
833,105	-20,7	-3,448
843,79	-20,18	-3,437
854,482	-19,74	-3,403
865,167	-19,76	-3,415
875,846	-17,68	-3,346
886,538	-18,54	-3,368
897,229	-15,12	-3,224
907,897	-13,32	-2,892
918,57	-17,56	-3,295
929,249	-17,22	-3,282
939,935	-16,88	-3,247
950,632	-14,24	-3,132
961,318	-10,3	-2,546
972,003	-11,16	-2,605
982,7	-10,54	-2,654
993,392	-11,86	-2,778
1004,077	-11,08	-2,693
1014,756	-10,04	-2,594
1025,442	-12,48	-2,768
1036,121	-14,96	-3,073
1046,801	-16,14	-3,222
1057,468	-19,22	-3,413
1068,148	-20,66	-3,474
1078,833	-20,98	-3,494
1089,53	-20,74	-3,496
1100,204	-20,52	-3,497
1110,889	-20,3	-3,498
1121,586	-19,98	-3,499
1132,266	-19,78	-3,499
1142,945	-19,5	-3,498
1153,631	-19,32	-3,5
1164,31	-18,34	-3,079
1175,001	-11,1	-2,33
1185,675	-6,94	-1,939
1196,372	-3,24	-1,385
1207,051	-0,26	-0,895
1217,737	1,86	-0,523
1228,41	2,84	-0,36
1239,078	0,82	-0,718
1249,775	-0,26	-0,919
1260,466	-0,2	-0,942
1271,152	-1,22	-1,144
1281,831	0,6	-0,796
1292,499	-4,88	-1,691
1303,202	-2,88	-1,483
1313,881	-5,3	-1,923
1324,561	-9,12	-2,4
1335,246	-10,08	-2,518
1345,932	-12,96	-2,821
1356,641	-15,24	-3,048
1367,344	-13,48	-2,899
1378,019	-11,14	-2,703
1388,691	-14,82	-3,02
1399,376	-8,68	-2,344
1410,074	-4,24	-1,732
1420,777	-2,26	-1,429
1431,451	0,18	-0,868
1442,142	1,6	-0,632
1452,851	2,18	-0,484
1463,525	0,78	-0,758
1474,216	2,24	-0,468
1484,896	2,76	-0,354
1495,569	2,78	-0,299
1506,266	3,42	-0,225
1516,952	3,32	-0,308
1527,637	1,6	-0,654
1538,329	1,4	-0,737
1549,002	0,16	-0,951
1559,693	-2,3	-1,463
1570,373	-4,32	-1,798
1581,058	-5,08	-1,935
1591,732	-7,28	-2,32
1602,423	-5,52	-2,11
1613,114	-6,92	-2,272
1623,806	-5,98	-2,193
1634,497	-6,38	-2,107
1645,189	-6,56	-2,269
1655,88	-5,88	-2,117
1666,565	-3	-1,68
1677,251	-2,44	-1,517
1687,924	-1,04	-1,226
1698,627	0,78	-0,84
1709,301	0,74	-0,889
1719,986	1,46	-0,672
1730,678	3,08	-0,318
1741,357	3,54	-0,226
1752,036	4,88	-0,108
1762,716	5,8	-0,039
1773,389	5,94	-0,022
1784,075	6,12	-0,008
1794,778	6,12	-0,001
1805,457	6,1	-0,001
1816,143	6,1	-0,001
1826,834	6,08	-0,001
1837,519	6,06	-0,001
1848,199	6,06	-0,001
1858,884	6,06	-0,001
1869,582	6,04	-0,001
1880,255	6,02	0
1890,94	6,02	-0,042
1901,608	6	0
1912,299	5,98	-0,053
1922,973	5,98	-0,012
1933,646	5,96	-0,001
1944,343	5,94	-0,223
1955,027	4,56	-0,502
1965,702	1,12	-0,912
1976,406	0,6	-1,182
1987,097	-1,74	-1,673
1997,77	-4,32	-2,226
2008,456	-4,08	-2,351
2019,123	-4,36	-2,282
2029,833	-4,34	-2,343
2040,512	-3,76	-2,217
2051,197	-3,84	-2,201
2061,877	-5,38	-2,572
2072,556	-5,8	-2,63
2083,229	-7,3	-2,922
2093,909	-8,22	-3,176
2104,588	-10,42	-3,38
2115,286	-11,8	-3,454
2125,965	-12,26	-3,483
2136,662	-12,16	-3,488
2147,342	-12,24	-3,488
2158,015	-12,18	-3,486
2168,713	-12,24	-3,494
2179,392	-12,18	-3,497
2190,083	-12,08	-3,498
2200,745	-12	-3,497
2211,424	-11,92	-3,183
2222,091	-9,14	-2,915
2232,771	-6,2	-2,462
2243,468	-4,6	-2,152
2254,136	-3,98	-2,03
2264,827	-2,34	-1,713
2275,494	-1,16	-1,325
2286,198	0,82	-0,747
2296,877	1,9	-0,399
2307,557	5,14	-0,035
2318,254	5,62	-0,003
2328,915	5,6	-0,001
2339,601	5,58	-0,005
2350,262	3,1	-0,656
2360,948	-0,38	-1,347
2371,633	-2,7	-2,063
2382,3	-5,98	-2,878
2392,986	-8,26	-3,304
2403,665	-10,94	-3,478
2414,339	-11,26	-3,498
2425,036	-11,2	-3,5
2435,727	-11,16	-3,322
2446,395	-11,16	-3,243
2457,086	-9,52	-2,972
2467,759	-9,12	-2,931
2478,427	-6,46	-2,549
2489,13	-4,08	-2,188
2499,81	-4,12	-2,16
2510,501	-4,62	-2,242
2521,168	-4,94	-2,338
2531,866	-4,22	-2,214
2542,527	-5,92	-2,505
2553,202	-7,06	-2,666
2563,874	-5,6	-2,359
2574,565	-4,6	-2,26
2585,245	-3,94	-2,126
2595,93	-2,68	-1,764
2606,616	-2,16	-1,622
2617,283	-1,34	-1,484
2627,944	-1,82	-1,567
2638,63	-1,42	-1,445
2649,315	-1,64	-1,504
2659,994	-1,34	-1,37
2670,668	-0,96	-1,314
2681,353	0	-0,989
2692,051	0,58	-0,749
2702,736	1	-0,712
2713,415	0,46	-0,918
2724,089	0,28	-0,861
2734,78	0,86	-0,741
2745,454	0,26	-0,978
2756,133	0,7	-0,779
2766,818	1,64	-0,466
2777,498	2,06	-0,374
2788,183	3,62	-0,116
2798,845	3,12	-0,134
2809,536	4,88	-0,035
2820,215	5,06	-0,024
2830,907	5,18	-0,014
2841,58	5,12	-0,015
2852,259	5,22	-0,009
2862,933	5,26	-0,006
2873,624	5,26	-0,006
2884,304	5,28	-0,003
2894,977	5,26	-0,004
2905,668	5,26	-0,002
2916,354	5,26	-0,002
2927,045	5,26	-0,002
2937,737	5,26	-0,002
2948,398	5,24	-0,002
2959,083	5,24	-0,002
2969,769	5,24	-0,002
2980,442	5,24	-0,002
2991,122	5,24	-0,002
3001,795	5,22	-0,001
3012,462	5,24	-0,001
3023,148	5,22	-0,001
3033,833	5,2	-0,001
3044,512	5,22	-0,001
3055,174	5,2	-0,002
3065,865	5,2	-0,001
3076,551	5,18	-0,001
3087,236	5,18	0
3097,909	5,18	-0,001
3108,583	5,18	-0,001
3119,262	5,16	0
3129,954	5,16	-0,001
3140,633	5,16	-0,001
3151,306	5,14	0
3161,986	5,14	-0,048
3172,665	5,12	-0,228
3183,345	4,5	-0,361
3194,03	2,26	-0,722
3200,156	5,14	-0,001