Folder: Data-filter--cyclical-tests-BEPE-project-/ensaios_Ciclicos/_20perc/_4gap/entrada

Note: README.md
# Data filter (cyclical tests BEPE project)
python aplication to treat data get by fatigue testing machine

File: _1.txt
Time (s)	Load (N)	Displacement (mm)
0	0	-0,034
11,46	-32	-3,492
23,278	3	-0,001
34,492	-20,5	-2,931
88,135	-18,5	-2,405
99,217	2	-0,074
110,37	-4,5	-1,172
121,139	-10	-2,027
131,842	-12	-2,261
143,14	-27	-3,305
153,778	-26	-3,074
164,402	-25	-3,082
174,992	-26	-3,094
185,713	-21	-2,617
196,423	-13,5	-2,104
206,844	-25,5	-2,973
217,133	-25,5	-3,491
227,525	-18	-3,149
238,306	-24,5	-3,458
248,866	-23,5	-3,424
298,147	-21,5	-2,914
308,742	-24	-3,003
318,942	-21	-3,387
329,063	-3	-1,047
339,688	-3	-1,146
349,798	3,5	-0,033
359,799	-18	-2,6
408,732	-7	-1,621
418,764	-24	-3,484
428,771	-0,5	-0,87
438,599	-5	-1,472
448,414	-19,5	-3,36
458,32	4	0
468,267	-5	-1,478
478,046	-16	-3,113
487,814	4	-0,016
498,055	-1,5	-1,027
507,823	-22	-3,438
517,566	4	-0,003
527,256	-22,5	-3,156
537,035	-6	-1,923
546,85	2,5	-0,146
556,594	-23,5	-3,498
566,349	-1,5	-0,921
576,051	-5,5	-1,68
585,782	-14,5	-3,02
632,496	-22	-3,462
642,263	4	0
651,989	-13,5	-2,512
661,678	-4	-1,617
671,452	0	-0,745
681,147	-20,5	-3,415
690,872	4,5	-0,004
700,574	-22,5	-3,5
747,701	-0,5	-0,866
757,432	-18,5	-3,427
767,182	4	-0,004
776,985	-18	-2,884
787,149	-19	-3,381
796,856	4,5	-0,01
806,57	-22	-3,499
816,235	3,5	-0,451
826,008	-7,5	-1,842
835,692	-10	-2,576
845,412	3,5	-0,082
891,951	0	-0,643
901,628	-17	-3,312
911,312	4	-0,041
921,013	-21,5	-3,492
930,72	4,5	-0,002
940,356	-21,5	-3,5
949,991	4,5	-0,213
959,657	-15	-2,552
969,314	-3	-1,475
979,012	-1	-0,979
988,671	-15	-3,164
998,307	2,5	-0,132
1007,936	-20,5	-3,472
1017,596	4,5	-0,004
1027,225	-21,5	-3,499
1036,908	2,5	-0,524
1046,586	-11,5	-2,392
1056,192	-3	-1,466
1065,821	-5	-1,733
1075,45	-8	-2,436
1085,056	0	-0,707
1094,727	-19	-3,413
1104,387	4,5	-0,008
1150,716	1,5	-0,267
1160,351	-20	-3,449
1169,993	4,5	-0,004
1179,616	-21	-3,492
1189,228	3,5	-0,427
1198,857	-12	-2,516
1208,451	-3,5	-1,739
1218,074	-1,5	-1,181
1227,656	-11,5	-2,817
1237,285	1,5	-0,286
1246,927	-20,5	-3,472
1256,538	4,5	-0,003
1266,161	-16,5	-2,88
1275,779	-3	-1,527
1285,426	-1	-0,975
1295,068	-18	-3,408
1304,655	4	-0,019
1314,327	-20,5	-3,499
1323,95	1,5	-0,621
1333,592	-8,5	-2,125
1343,209	-6	-2,214
1352,838	0,5	-0,49
1362,432	-17,5	-3,392
1372,121	4	-0,005
1381,727	-20,5	-3,499
1391,362	0,5	-0,708
1400,926	-11,5	-2,46
1410,513	-3,5	-1,669
1420,089	-3	-1,412
1429,73	-10	-2,781
1439,347	2	-0,166
1448,929	-19	-3,452
1458,564	4	-0,014
1468,236	-20	-3,499
1477,853	4	-0,282
1487,477	-13,5	-2,705
1497,082	-2,5	-1,307
1506,688	-4,5	-1,715
1516,311	-7,5	-2,467
1525,905	0	-0,658
1535,51	-16	-3,336
1545,049	3,5	-0,107
1554,625	-19,5	-3,481
1564,223	4,5	-0,004
1573,811	-20	-3,499
1583,375	3	-0,44
1592,974	-11,5	-2,499
1602,567	-3	-1,591
1612,143	-3,5	-1,59
1621,718	-7,5	-2,501
1631,329	1	-0,4
1640,881	-17	-3,376
1650,504	4	-0,029
1660,086	-19,5	-3,493
1669,637	4,5	-0,002
1679,207	-19,5	-3,499
1688,806	3	-0,418
1698,37	-15	-2,808
1708,017	-3	-1,452
1717,569	-5	-1,796
1727,144	-6,5	-2,347
1736,701	0	-0,685
1746,265	-14	-3,218
1755,816	3,5	-0,108
1765,374	-19	-3,478
1774,937	4,5	-0,012
1784,507	-19,5	-3,496
1794,052	4,5	-0,002
1803,604	-19,5	-3,499
1813,179	4	-0,329
1822,767	-15	-2,754
1832,342	-2	-1,293
1841,87	-6	-1,999
1851,391	-2,5	-1,517
1860,924	-7	-2,002
1870,494	-4	-1,947
1880,039	-2,5	-1,325
1889,597	-7,5	-2,521
1899,148	0	-0,705
1908,712	-13	-3,187
1918,245	2,5	-0,168
1927,796	-18,5	-3,471
1937,324	4,5	-0,032
1946,852	-19,5	-3,484
1956,361	4,5	-0,01
1965,99	-19,5	-3,499
1975,5	4,5	-0,001
1985,027	-19,5	-3,499
1994,573	4	-0,395
2004,088	-16	-2,95
2013,604	0,5	-0,72
2023,167	-9	-2,358
2032,725	-3	-1,568
2042,288	-4,5	-1,635
2051,822	-4,5	-2,032
2061,379	-1,5	-1,26
2070,918	-5,5	-2,326
2080,44	-1,5	-1,316
2089,991	-5,5	-2,361
2099,537	-0,5	-1,024
2109,1	-9,5	-2,795
2118,646	0	-0,611
2128,179	-11	-3,024
2137,773	2	-0,246
2147,306	-13,5	-3,26
2156,875	2,5	-0,147
2166,397	-14,5	-3,309
2175,954	2,5	-0,188
2185,494	-14	-3,256
2195,039	1	-0,412
2204,579	-11	-3,042
2214,106	1	-0,519
2223,628	-10,5	-2,872
2233,203	1,5	-0,353
2242,755	-14	-3,288
2252,312	1,5	-0,277
2261,869	-15	-3,384
2271,421	3,5	-0,07
2280,972	-17,5	-3,454
2290,518	4,5	-0,022
2300,045	-18	-3,482
2309,639	4,5	-0,007
2319,16	-18,5	-3,493
2328,682	4,5	-0,004
2338,233	-18,5	-3,498
2347,761	4,5	-0,002
2357,276	-18,5	-3,499
2366,821	4,5	-0,001
2376,337	-18	-3,499
2385,876	4,5	-0,002
2395,404	-18,5	-3,498
2405,015	4,5	-0,001
2414,573	-18	-3,499
2424,088	4,5	-0,001
2433,622	-18	-3,499
2443,143	4,5	-0,002
2452,67	-17,5	-3,498
2462,186	4,5	-0,002
2471,725	-17,5	-3,498
2481,253	4,5	-0,001
2490,816	-17	-3,5
2500,332	4,5	-0,09
2509,853	-16,5	-3,5
2519,375	4,5	0
2528,884	-15,5	-3,499
2538,424	4,5	-0,023
2547,981	-15	-3,06
2557,533	0	-0,92
2567,072	-6	-2,354
2576,599	-1,5	-1,242
2586,127	-5	-2,238
2595,66	-1,5	-1,408
2605,176	-5,5	-2,26
2614,691	-1,5	-1,494
2624,207	-3	-1,982
2633,746	-3	-1,763
2643,268	-1,5	-1,746
2652,783	-2,5	-1,747
2662,305	-2	-1,86
2671,814	-2,5	-1,727
2681,336	-1,5	-1,78
2690,869	-2	-1,814
2700,396	-0,5	-1,64
2709,966	-4	-2,491
2719,481	0	-0,96
2728,991	-5	-2,745
2738,518	1	-0,651
2748,04	-7,5	-3,095
2757,567	2	-0,236
2767,089	-10	-3,421
2776,634	3,5	-0,058
2786,204	-11	-3,487
2795,725	4,5	-0,007
2805,264	-11	-3,496
2814,798	4,5	-0,002
2824,32	-11	-3,498
2833,835	4,5	0
2843,344	-11	-3,494
2852,854	4,5	-0,174
2862,369	-11	-3,378
2871,909	3	-0,496
2881,448	-6,5	-2,786
2890,975	0	-1,012
2900,503	-2,5	-2,234
2910,018	-0,5	-1,25
2919,54	-2	-2,171
2929,073	-1	-1,556
2938,601	-1	-1,903
2948,128	-1,5	-1,745
2957,644	-1,5	-1,97
2967,159	-1	-1,576
2976,699	-1	-1,93
2986,268	-1,5	-1,792
2995,789	-1	-1,841
3005,317	-1,5	-1,867
3014,832	-0,5	-1,68
3024,432	-2	-2,09
3033,971	0	-1,369
3043,487	-2,5	-2,243
3052,996	0	-1,402
3062,494	-2	-2,045
3071,997	0	-1,54
3081,543	-2	-2,257
3091,076	0	-1,416
3100,585	-1,5	-1,951
3110,131	0	-1,391
3119,646	-2	-2,299
3129,162	0	-1,125
3138,684	-2,5	-2,472
3148,199	1	-0,871
3157,72	-3,5	-2,892
3167,236	1,5	-0,474
3171,891	4,5	0

File: _3.txt
Time (s)	Load (N)	Displacement (mm)
0	0	-0,136
1,728	-3,5	-0,243
3,425	-26	-2,573
5,129	-32,5	-3,48
7,331	-32,5	-3,492
9,018	-12	-1,891
10,739	1,5	-0,001
12,389	-8,5	-1,008
14,111	-31,5	-3,207
15,821	-27	-3,362
17,578	-8	-1,456
19,36	2	-0,001
21,149	-2	-0,372
22,786	-29	-3,006
24,442	-26,5	-3,364
26,23	-9	-1,61
27,946	2	-0,002
29,668	-6	-0,872
31,396	-26,5	-2,914
33,076	-28	-3,434
35,242	-29	-3,459
36,988	-9,5	-1,8
38,667	2,5	-0,002
40,335	-6,5	-0,993
42,039	-30	-3,254
43,702	-23	-3,22
129,838	-27,5	-3,498
131,404	-9	-1,888
133,025	3	-0,005
134,668	-8	-1,424
136,276	-27,5	-3,497
137,836	-8	-1,836
139,414	3	-0,007
141,086	-8	-1,464
142,684	-27	-3,497
144,226	-7,5	-1,814
145,839	3	-0,007
147,387	-13,5	-2,034
148,989	-27	-3,486
150,525	-4,5	-1,122
152,145	3	-0,04
153,801	-15	-2,093
155,349	-26	-3,456
156,927	-3,5	-1,015
158,949	2	-0,451
160,497	-2,5	-0,76
162,05	-27	-3,499
163,676	-13,5	-2,516
165,248	3,5	-0,001
166,85	-5,5	-1,198
168,461	-27	-3,499
170,029	-10,5	-2,168
171,644	3	-0,001
173,198	-7	-1,443
174,806	-26,5	-3,496
176,348	-6	-1,66
177,973	3,5	-0,007
179,63	-10	-1,605
181,273	-26,5	-3,498
182,899	-10,5	-2,261
184,507	3,5	-0,002
186,163	-4	-1,063
187,717	-26,5	-3,498
189,313	-10	-2,138
190,903	3,5	-0,003
192,499	-7,5	-1,558
194,089	-26,5	-3,496
195,648	-7	-1,749
197,232	3,5	-0,008
198,9	-7,5	-1,528
200,418	-26	-3,492
201,978	-4	-1,236
203,526	2	-0,08
205,146	-18,5	-2,519
206,73	-23,5	-3,433
208,35	-2,5	-0,966
209,922	1,5	-0,128
211,548	-19	-2,6
213,059	-19,5	-3,14
214,691	0	-0,65
216,215	-1	-0,584
217,751	-26	-3,499
219,317	-11	-2,371
220,841	3,5	-0,003
222,341	-12,5	-2,038
223,853	-24	-3,442
225,845	-17,5	-2,958
227,465	3	-0,35
229,091	0	-0,412
230,644	-26	-3,359
232,198	-14	-2,569
233,782	3	-0,001
235,318	-6	-1,424
236,878	-26	-3,495
238,421	-6	-1,626
240	3,5	-0,016
241,576	-14,5	-2,177
243,148	-24,5	-3,452
244,702	-2,5	-0,908
246,32	2,5	-0,087
247,87	-22	-2,882
249,454	-19,5	-3,247
329,843	2,5	-0,083
331,409	-20	-2,759
332,969	-18,5	-3,193
334,499	3,5	-0,107
335,986	-4,5	-1,289
337,51	-24,5	-3,494
339,07	-5	-1,512
340,583	3	-0,063
342,064	-23	-3,059
343,594	-14,5	-2,717
345,13	3,5	-0,001
346,708	-4,5	-1,279
348,25	-24,5	-3,495
349,78	-4,5	-1,488
351,262	2,5	-0,088
352,731	-24,5	-3,264
354,208	-9,5	-2,298
355,743	3,5	-0,002
357,273	-9	-1,879
358,785	-23,5	-3,459
360,298	0	-0,652
361,832	0	-0,458
363,321	-24,5	-3,499
364,833	-8	-2,035
366,315	3,5	-0,016
367,809	-18	-2,715
407,94	-20	-3,33
409,458	3,5	-0,243
410,94	-3,5	-1,198
412,44	-24	-3,494
413,916	-3,5	-1,243
415,386	1	-0,298
416,874	-24	-3,452
418,374	-8,5	-2,199
419,862	3,5	-0,013
421,35	-19,5	-2,572
422,79	-14,5	-2,8
424,307	3,5	-0,001
425,807	-7	-1,714
427,271	-23	-3,445
428,729	2,5	-0,383
430,223	-2,5	-1,032
431,675	-24	-3,492
433,205	-4,5	-1,333
434,633	0	-0,365
436,109	-24	-3,499
437,573	-6	-1,736
439,043	3	-0,056
440,573	-19,5	-2,884
442,105	-15	-2,935
443,53	4	-0,003
482,642	-10,5	-2,408
484,142	4	-0,005
485,618	-14,5	-2,348
487,082	-16,5	-3,129
488,546	3,5	-0,001
490,016	-7,5	-1,714
491,473	-22,5	-3,451
492,967	2	-0,527
494,467	-1,5	-0,843
495,931	-23,5	-3,496
497,359	-2,5	-1,101
498,811	0	-0,494
500,335	-23,5	-3,5
501,799	-6	-1,943
503,287	3,5	-0,021
504,757	-19,5	-2,759
506,245	-14,5	-2,865
507,733	4	-0,001
509,209	-8,5	-1,808
510,684	-22,5	-3,453
512,136	3	-0,372
513,594	-3,5	-1,153
515,058	-23,5	-3,491
516,516	-1	-0,912
517,987	0	-0,571
519,468	-23,5	-3,499
520,95	-5,5	-1,757
522,426	3,5	-0,032
523,896	-23,5	-3,129
525,366	-9,5	-2,375
526,806	3,5	-0,014
528,258	-19	-2,667
529,721	-13	-2,729
531,191	4	-0,002
532,667	-12	-2,149
534,131	-19	-3,336
535,601	3,5	-0,102
537,053	-5,5	-1,47
538,505	-22,5	-3,471
539,951	3	-0,584
541,415	-3	-1,08
542,855	-23	-3,488
544,319	-1	-0,88
545,74	-1	-0,854
547,18	-23,5	-3,495
548,626	-2	-1,058
550,09	0	-0,482
551,53	-23	-3,498
552,982	-3,5	-1,328
554,488	2	-0,122
555,916	-23	-3,499
668,818	-5	-1,667
670,263	2	-0,107
671,703	-22,5	-3,492
673,173	-6,5	-1,994
674,637	3,5	-0,027
676,065	-22	-3,071
677,547	-9,5	-2,498
678,981	4	-0,009
680,433	-15	-2,582
681,891	-13,5	-2,851
683,349	3,5	-0,002
684,777	-10,5	-2,11
686,24	-18,5	-3,342
687,692	3,5	0
689,138	-6	-1,668
690,59	-21,5	-3,446
692,042	3,5	-0,246
693,488	-4	-1,381
694,958	-22,5	-3,487
696,404	0,5	-0,671
697,85	-1,5	-0,979
699,308	-23	-3,494
700,766	-2	-1,066
702,283	1	-0,24
703,729	-22,5	-3,499
816,462	4	-0,103
817,914	-4,5	-1,469
819,36	-22	-3,47
820,8	1,5	-0,511
822,252	-2	-1,079
823,722	-22	-3,493
825,21	-2	-1,136
826,661	0,5	-0,459
828,119	-22	-3,499
829,613	-5	-1,864
831,078	3,5	-0,04
832,535	-20,5	-3,041
833,999	-9	-2,417
835,451	4	-0,01
836,915	-15	-2,593
838,367	-12,5	-2,809
839,819	4	-0,002
841,259	-10,5	-2,249
842,722	-17	-3,248
844,174	4	-0,001
845,65	-5,5	-1,635
847,108	-21	-3,458
848,554	3	-0,392
850,012	-2,5	-1,144
851,476	-22	-3,492
852,91	-1	-0,838
854,392	0	-0,584
855,856	-22	-3,498
857,314	-3	-1,444
858,76	1,5	-0,205
860,23	-22	-3,492
861,657	-5	-1,818
863,103	3,5	-0,063
864,543	-22	-3,294
865,983	-6	-2,033
867,43	3,5	-0,032
868,911	-18	-2,846
870,375	-10	-2,578
871,833	4	-0,004
873,291	-12,5	-2,377
874,743	-14	-2,956
876,171	4	-0,002
877,635	-9,5	-2,098
879,068	-16	-3,198
880,514	4	-0,001
881,978	-5,5	-1,755
883,43	-19,5	-3,428
884,87	4	-0,221
886,316	-3	-1,358
887,756	-21,5	-3,471
889,196	2,5	-0,488
3187,869	-8,5	-3,454
3189,296	3,5	-0,181
3190,718	-0,5	-1,631
3192,158	-8	-3,438
3193,574	4	-0,041
3195,008	-0,5	-1,644
3196,43	-8	-3,412
3197,858	4	0
3199,286	-0,5	-1,769
3200,708	-7	-3,392
3202,136	4	-0,001
3203,558	-0,5	-1,787
3205,028	-8,5	-3,446
3206,473	4	-0,202
3207,901	0	-1,556
3209,329	-8	-3,442
3210,697	4	-0,001

File: _4.txt
Time (s)	Load (N)	Displacement (mm)
329,063	3	-0,028
329,837	-13	-2,628
330,569	-19	-2,657
331,331	3,5	-0,003
332,087	-19	-3,197
332,854	-10,5	-1,886
333,635	3	-0,351
334,396	-25	-3,485
335,189	-1	-0,658
335,962	-4,5	-1,482
336,767	-25,5	-3,456
337,552	3	-0,024
338,302	-12	-2,478
339,094	-16,5	-2,447
339,869	3,5	-0,001
340,642	-23	-3,4
341,471	-3,5	-1,134
342,238	-2,5	-0,932
342,994	-25,5	-3,497
343,726	-0,5	-0,468
344,494	-5	-1,609
345,274	-25,5	-3,365
346,048	3,5	-0,023
346,846	-14,5	-2,784
347,626	-13,5	-2,175
348,364	3,5	-0,001
349,15	-24	-3,44
349,924	-4,5	-1,292
350,68	-1	-0,768
351,478	-25,5	-3,497
352,221	0	-0,488
353,007	-5,5	-1,696
353,769	-25,5	-3,419
354,531	3	-0,033
355,287	-11	-2,416
356,025	-20	-2,765
356,775	3,5	-0,006
357,538	-17	-3,021
358,287	-13,5	-2,205
359,074	3,5	0
359,871	-24,5	-3,47
360,651	-3	-1,034
361,437	-3,5	-1,144
362,217	-25,5	-3,499
363,009	2,5	-0,062
363,777	-10,5	-2,361
364,557	-18,5	-2,583
365,319	3,5	-0,002
366,123	-21	-3,336
366,861	-8,5	-1,738
405,924	1,5	-0,505
406,662	-25	-3,487
407,412	-2,5	-1,016
408,174	-3	-1,001
408,924	-25	-3,498
409,668	0	-0,422
410,43	-5	-1,647
411,193	-25	-3,461
411,936	3	-0,048
412,692	-9,5	-2,318
413,448	-20,5	-2,836
414,192	3,5	-0,008
414,978	-17,5	-3,094
415,734	-10,5	-2,028
416,484	3	0
417,24	-24	-3,443
417,972	-5,5	-1,39
418,716	0,5	-0,56
419,484	-25	-3,492
420,228	-1,5	-0,855
420,996	-3,5	-1,314
421,757	-25	-3,499
422,525	1,5	-0,126
423,275	-7,5	-2
424,037	-23	-3,05
424,781	3,5	-0,015
425,537	-13,5	-2,677
426,311	-13,5	-2,319
427,067	3,5	-0,001
427,793	-20,5	-3,312
428,549	-8	-1,686
429,293	3	-0,284
430,031	-24	-3,473
430,793	-3	-1,201
431,543	-2	-0,852
432,317	-25	-3,496
433,067	0	-0,438
433,847	-5	-1,711
434,585	-25	-3,5
435,353	3	-0,056
436,085	-9	-2,225
436,847	-20,5	-2,85
437,621	3,5	-0,005
438,395	-18,5	-3,174
439,145	-10,5	-1,957
439,9	3,5	-0,005
440,632	-23,5	-3,433
441,376	-5	-1,461
442,156	-0,5	-0,74
442,936	-24,5	-3,496
518,742	-3	-1,192
519,492	-24,5	-3,498
520,236	1	-0,21
520,968	-5,5	-1,786
521,742	-24,5	-3,342
522,474	3,5	-0,035
523,248	-11	-2,45
523,992	-17	-2,662
524,73	3,5	-0,005
525,449	-15	-2,885
526,214	-11,5	-2,148
526,955	3,5	-0,001
527,711	-22,5	-3,427
528,455	-5	-1,49
529,199	2	-0,492
529,937	-24	-3,486
530,681	-3,5	-1,218
531,437	-1	-0,826
532,193	-24	-3,496
532,925	0	-0,624
533,669	-3,5	-1,37
534,407	-24,5	-3,499
535,151	1,5	-0,175
535,883	-5,5	-1,801
536,633	-24	-3,343
537,389	3,5	-0,03
538,133	-10	-2,398
538,883	-18	-2,67
539,615	3,5	-0,006
540,394	-15,5	-3,192
541,127	-9	-1,93
541,871	3,5	-0,072
542,626	-24	-3,463
543,359	-4	-1,296
544,09	0	-0,623
544,834	-24	-3,491
545,566	-1	-0,842
546,298	-2,5	-1,042
547,048	-24,5	-3,498
547,792	0,5	-0,317
548,524	-5	-1,571
549,262	-24,5	-3,499
549,994	2	-0,102
550,732	-7	-2,004
551,464	-23,5	-3,192
552,19	3,5	-0,03
552,934	-10	-2,386
553,666	-17,5	-2,75
554,416	3,5	-0,006
555,148	-15	-2,902
667,09	-15	-3,091
667,821	-10	-2,072
668,559	3,5	0
669,303	-21,5	-3,428
670,035	-5,5	-1,523
670,755	2,5	-0,453
671,499	-23,5	-3,483
672,231	-2,5	-1,084
672,981	-1,5	-0,971
673,719	-24	-3,496
674,451	0	-0,512
675,195	-3,5	-1,51
675,927	-24	-3,499
676,647	1,5	-0,123
677,391	-5,5	-1,941
678,153	-23,5	-3,11
678,897	3,5	-0,017
679,635	-10	-2,538
680,379	-15,5	-2,5
681,123	3,5	-0,004
681,885	-17	-3,198
682,617	-9	-1,99
683,378	3,5	-0,144
684,134	-22,5	-3,469
684,866	-3,5	-1,257
685,616	-0,5	-0,8
686,367	-24	-3,495
687,11	0	-0,552
687,86	-3,5	-1,499
688,61	-23,5	-3,499
689,33	2	-0,125
690,074	-5,5	-1,962
690,806	-23,5	-3,234
691,544	3,5	-0,029
692,276	-9,5	-2,42
693,02	-17,5	-2,72
693,764	4	-0,006
694,484	-13	-2,864
695,252	-10,5	-2,095
695,996	3,5	-0,001
696,728	-19,5	-3,376
697,484	-5,5	-1,586
698,222	3	-0,388
698,972	-23	-3,484
699,722	-1,5	-0,948
700,465	-1,5	-1,018
701,209	-23,5	-3,497
701,941	0	-0,418
702,679	-4	-1,546
703,399	-23,5	-3,499
704,143	2	-0,115
704,887	-5,5	-1,969
705,631	-23,5	-3,172
706,375	3,5	-0,021
707,167	-12,5	-2,805
707,913	-13	-2,308
708,661	3,5	-0,001
709,393	-17,5	-3,29
710,161	-6	-1,638
710,905	3	-0,329
711,637	-23	-3,474
712,381	-2	-1,085
713,113	0	-0,791
713,851	-23,5	-3,494
714,595	0	-0,578
715,327	-3	-1,337
716,065	-23,5	-3,499
716,809	1,5	-0,165
717,54	-5,5	-1,824
718,297	-23,5	-3,292
719,016	3	-0,037
719,76	-8	-2,302
720,51	-18,5	-2,764
721,242	3,5	-0,008
721,998	-14,5	-2,966
722,741	-10,5	-2,126
723,474	3,5	-0,001
724,195	-19,5	-3,346
724,938	-6	-1,688
725,664	3,5	-0,212
726,414	-23	-3,472
727,154	-3	-1,225
727,884	0,5	-0,673
728,61	-23	-3,49
729,378	0	-0,664
730,098	-2,5	-1,225
730,836	-23,5	-3,498
731,574	1	-0,281
732,342	-5	-1,83
733,086	-23,5	-3,328
733,818	3,5	-0,041
734,562	-8,5	-2,355
735,294	-18	-2,808
736,043	3,5	-0,006
736,763	-12	-2,781
737,519	-12,5	-2,304
738,263	3,5	-0,001
738,995	-18,5	-3,31
739,739	-7	-1,769
740,471	3,5	-0,158
3150,395	3,5	-0,033
3151,145	-3	-2,438
3151,865	-6,5	-2,817
3152,598	3,5	-0,009
3153,317	-3,5	-2,733
3154,049	-4	-2,449
3154,769	3,5	-0,003
3155,495	-5	-3,028
3156,215	-3	-2,151
3156,947	4	-0,001
3157,673	-7	-3,33
3158,405	-1	-1,781
3159,125	4	-0,032
3159,851	-9,5	-3,434
3160,571	-0,5	-1,53
3161,303	3	-0,366
3162,023	-10,5	-3,472
3162,743	0	-1,256
3163,475	1,5	-0,684
3164,195	-10,5	-3,49
3164,921	0,5	-0,839
3165,641	0	-1,003
3166,373	-11	-3,496
3167,111	1,5	-0,358
3167,849	-1	-1,565
3168,568	-11	-3,499
3169,3	3	-0,103
3170,027	-1,5	-1,934
3170,758	-10,5	-3,248
3171,478	3,5	-0,039
3172,21	-2	-2,278
3172,93	-8,5	-2,943
3173,656	4	-0,014
3174,376	-3	-2,54
3175,108	-5	-2,613
3175,828	4	-0,006
3176,572	-5	-2,988
3177,292	-3	-2,234
3178,024	3,5	-0,001
3178,744	-7	-3,312
3179,476	-1,5	-1,783
3180,196	3,5	-0,012
3180,916	-9	-3,422
3181,66	0	-1,464
3182,284	3,5	0