Folder: Data-filter--cyclical-tests-BEPE-project-/Cycling_tests/_30perc/_3gap/entrada

Note: README.md
# Data filter (cyclical tests BEPE project)
python aplication to treat data get by fatigue testing machine

File: _2.txt
Time (s)	Load (N)	Displacement (mm)
46,294	-24	-3,499
50,211	-20	-3,311
54,129	-5,5	-1,352
58,557	-8,5	-1,902
62,39	1,5	-0,002
66,352	-2,5	-0,476
70,23	-18	-2,53
74,162	-23,5	-3,494
77,918	-8	-1,854
81,787	1,5	-0,001
85,615	-3	-0,672
90,073	0	-0,131
138,1	-8	-2,002
141,928	2	-0,001
145,666	-5	-1,18
149,403	-22,5	-3,499
153,741	-22,5	-3,498
157,473	-12	-2,55
161,265	2	-0,015
165,08	-1,5	-0,504
168,746	-22,5	-3,499
172,436	-9,5	-2,46
176,024	2	-0,018
179,624	-18,5	-2,771
183,283	-14	-3,017
187,465	-10	-2,282
190,988	2	-0,031
194,647	-15,5	-2,54
198,289	-16	-3,076
201,895	2	-0,001
205,56	-10	-1,679
209,136	-20	-3,41
212,658	2	-0,001
216,3	-8	-1,493
220,589	-7,5	-1,559
224,225	-21,5	-3,482
227,891	-1,5	-0,886
231,575	-0,5	-0,288
235,205	-22	-3,499
238,84	-7	-1,919
242,507	2	-0,015
246,218	-11,5	-2,12
249,724	-13,5	-2,781
253,354	2	-0,002
256,947	-11,5	-2,06
260,51	-15	-3,083
263,997	2,5	-0,006
267,477	-21,5	-3,182
271,022	-7,5	-2,048
274,533	1,5	-0,052
278,036	-21,5	-3,499
281,588	-3,5	-1,203
285,192	0	-0,242
288,721	-21,5	-3,498
292,819	-21	-3,474
296,371	2	-0,297
299,917	-6	-1,5
303,433	-18,5	-3,388
306,996	2	0
310,476	-13	-2,349
314,034	-12	-2,9
317,604	2,5	-0,003
321,125	-17	-2,774
324,701	-10,5	-2,498
328,733	-3,5	-1,238
332,219	-3	-0,99
335,699	-21	-3,466
339,179	2,5	-0,006
342,73	-8	-1,71
346,156	-14	-2,896
349,6	2	-0,022
353,056	-21	-3,5
356,493	-3	-1,101
359,979	-3	-1,035
363,441	-19,5	-3,432
366,915	2,5	-0,001
370,443	-12	-2,225
373,911	-10	-2,571
377,336	1,5	-0,084
380,823	-21	-3,498
384,334	-1	-0,787
387,776	-6	-1,56
391,232	-15	-3,075
394,706	2,5	-0,005
398,119	-21	-3,285
401,539	-3,5	-1,301
404,953	-3	-1,084
408,439	-20	-3,442
411,828	2,5	-0,003
415,296	-17	-2,864
418,638	-3	-1,244
422,064	-3,5	-1,129
425,508	-18,5	-3,42
428,909	2	-0,005
432,305	-21	-3,5
435,707	-2	-0,961
439,601	2	-0,01
443,051	-21	-3,5
446,38	0	-0,646
449,752	-10	-2,13
453,13	-8	-2,178
456,532	-1	-0,495
459,964	-20	-3,481
463,395	2,5	-0,001
466,821	-15,5	-2,721
470,271	-6	-1,87
473,613	-2,5	-0,951
477,048	-17	-3,426
480,44	2,5	-0,004
483,83	-20,5	-3,461
487,238	-2,5	-1,081
490,664	-3,5	-1,234
494,078	-15	-3,301
497,497	2,5	-0,009
500,881	-20,5	-3,499
504,265	-1,5	-0,77
507,589	-10	-2,146
550,264	-20	-3,347
553,696	-2,5	-1,203
557,104	-4,5	-1,33
560,482	-13,5	-3,027
563,866	2	-0,022
567,778	-4,5	-1,315
571,107	-11,5	-2,817
574,473	1,5	-0,076
577,845	-20	-3,493
581,109	2,5	-0,002
584,481	-18,5	-3,028
587,888	-3,5	-1,414
591,296	-3,5	-1,065
594,578	-10,5	-2,7
597,962	1,5	-0,091
601,28	-19,5	-3,479
604,585	3	-0,003
608,017	-19,5	-3,261
611,906	-17	-3,396
615,235	2,5	-0,019
618,607	-19,5	-3,498
621,948	2,5	-0,142
625,308	-14	-2,589
628,644	-3	-1,403
632,004	-4,5	-1,375
635,435	-15	-3,241
638,772	2	-0,036
642,209	-19,5	-3,498
645,515	2,5	-0,201
648,875	-13,5	-2,573
652,187	-3,5	-1,506
655,45	-6,5	-1,638
658,828	-9,5	-2,637
662,668	1,5	-0,517
666,04	-11	-2,29
669,304	-3,5	-1,496
672,681	-4	-1,304
675,975	-9,5	-2,548
679,305	-0,5	-0,465
682,587	-16,5	-3,38
685,959	2,5	-0,008
689,277	-19,5	-3,498
692,666	2,5	-0,288
696,021	-13,5	-2,544
699,284	-2,5	-1,242
702,608	-6	-1,678
705,871	-5,5	-2,007
709,249	-1	-0,712
712,555	-15,5	-3,325
716,419	-2,5	-1,158
719,689	-9,5	-2,08
723,001	-5,5	-1,982
726,294	-3	-1,136
729,606	-10,5	-2,827
733,014	1,5	-0,062
736,29	-19	-3,467
739,698	2,5	-0,002
742,997	-19,5	-3,5
785,427	-9	-2,683
788,739	-0,5	-0,504
792,021	-14,5	-3,292
795,356	2,5	-0,039
798,698	-19,5	-3,496
802,022	3	-0,001
805,364	-15,5	-2,898
808,67	-1,5	-0,996
811,969	-8	-2,024
815,317	-6	-2,176
818,623	-2	-1,061
822,481	-19	-3,254
825,793	-0,5	-0,819
829,159	-7,5	-1,929
832,518	-6,5	-2,268
835,872	-0,5	-0,593
839,203	-17	-3,401
842,538	2,5	-0,016
845,867	-19	-3,498
849,173	3	-0,001
852,527	-15,5	-2,914
855,827	-2	-1,075
859,151	-6,5	-1,846
900,974	-3	-1,513
904,244	-5,5	-1,784
907,532	-5	-2,01
910,82	-2,5	-1,179
914,09	-8	-2,482
917,401	-0,5	-0,7
920,665	-11,5	-2,958
923,929	0	-0,347
927,211	-16	-3,388
930,451	1,5	-0,102
933,757	-17,5	-3,473
937,056	3	-0,014
1017,218	-11,5	-2,923
1020,512	0,5	-0,237
1023,793	-17,5	-3,435
1026,991	2	-0,075
1030,285	-18,5	-3,485
1033,585	3	-0,003
1036,837	-18,5	-3,497
1040,101	3	-0,001
1043,394	-18,5	-3,362
1046,706	1,5	-0,582
1050	-12,5	-2,552
1092,016	-5	-2,048
1095,267	-3	-1,252
1098,562	-9,5	-2,782
1101,897	0	-0,26
1105,233	-18	-3,472
1108,521	3	-0,01
1111,772	-18,5	-3,494
1115,024	3	-0,003
1118,3	-18,5	-3,498
1121,552	3	0
1124,894	-15,5	-2,93
1128,139	0	-0,712
1169,897	-18	-3,307
1173,197	0,5	-0,654
1176,521	-9,5	-2,309
1179,754	-2	-1,236
1182,976	-9,5	-2,258
1186,204	-2,5	-1,302
1189,492	-6	-1,789
1192,774	-5	-2,081
1196,079	-1,5	-0,939
1199,313	-9	-2,708
1202,558	-0,5	-0,72
1205,824	-11	-2,981
1399,21	-0,5	-0,656
1402,45	-11,5	-2,993
1405,701	0	-0,278
1408,93	-14,5	-3,331
1412,217	2,5	-0,047
1415,481	-17,5	-3,478
1418,805	3	-0,003
1422,045	-18	-3,498
1425,284	3	-0,001
1428,56	-18	-3,5
1431,819	2,5	-0,233
1510,851	3	0
1514,085	-17,5	-3,498
1517,337	2,5	-0,263
1520,607	-15	-2,914
1523,877	-1	-0,945
1527,087	-10,5	-2,423
1530,32	-2	-1,327
1533,596	-6	-1,868
1536,8	-3,5	-1,744
1540,052	-4	-1,48
1543,292	-5	-2,148
1546,477	-3,5	-1,468
1662,337	3	-0,001
1665,595	-17,5	-3,5
1668,882	2,5	-0,393
1672,11	-14,5	-2,949
1675,338	0,5	-0,604
1678,555	-13,5	-2,873
1681,776	1	-0,597
1685,046	-11,5	-2,593
1688,262	-1	-0,949
1691,471	-11,5	-2,675
1694,717	-0,5	-0,978
1697,969	-8,5	-2,306
1701,245	-2,5	-1,524
1704,43	-6,5	-2,076
1707,664	-2,5	-1,56
1710,844	-7,5	-2,096
1714,102	-3	-1,606
1717,3	-6	-1,912
1720,491	-2,5	-1,482
1723,683	-7,5	-2,071
1726,935	-3	-1,616
1730,133	-6	-1,96
1733,349	-3	-1,566
3190,887	3	-0,003
3194,056	-7,5	-3,486
3197,247	2,5	-0,03
3200,409	-5,5	-3,395
3203,625	1,5	-0,094
3206,811	-4,5	-3,281
3210,068	1,5	-0,132
3212,588	3	0

File: _3.txt
Time (s)	Load (N)	Displacement (mm)
0	-0,5	-0,051
10,832	0,5	-0,119
21,602	0,5	-0,001
32,371	1	-0,004
43,158	1	-0,019
53,934	1	-0,025
64,703	1	-0,037
75,479	1	-0,041
86,26	1	-0,045
97,041	0,5	-0,049
107,811	1	-0,048
118,628	1	-0,021
129,428	1,5	-0,015
140,203	1,5	-0,01
151,008	1,5	-0,02
161,814	1,5	-0,011
172,601	1,5	-0,017
183,394	1,5	-0,023
194,176	1	-0,071
204,969	1	-0,069
215,775	1	-0,07
226,58	0,5	-0,1
237,397	1	-0,087
248,191	0	-0,213
259,014	0	-0,244
269,819	-1	-0,419
280,643	-1	-0,542
291,46	-2	-0,718
302,266	-3	-1,011
313,095	-5	-1,232
323,912	-5,5	-1,237
334,712	-6,5	-1,519
345,523	-7,5	-1,697
356,323	-7,5	-1,706
367,134	-9	-1,853
377,933	-10,5	-2,028
388,745	-10	-2,047
399,538	-12	-2,315
410,361	-12	-2,238
421,173	-11	-2,107
431,978	-12	-2,29
442,796	-12	-2,326
453,595	-13	-2,41
464,412	-13,5	-2,538
475,236	-14	-2,588
486,047	-15	-2,612
496,852	-15	-2,768
507,67	-14	-2,602
518,481	-14	-2,541
529,293	-13	-2,506
540,086	-12,5	-2,467
550,921	-12,5	-2,444
561,751	-13,5	-2,588
572,568	-13	-2,443
583,368	-13	-2,438
594,167	-13,5	-2,506
605,008	-12,5	-2,327
615,808	-11	-2,268
626,613	-10	-2,094
637,406	-8,5	-1,974
648,218	-8,5	-1,919
659,029	-7,5	-1,831
669,835	-6,5	-1,714
680,658	-5,5	-1,642
691,463	-5	-1,532
702,275	-6	-1,578
713,08	-5,5	-1,584
723,892	-4,5	-1,433
734,697	-4,5	-1,499
745,502	-5	-1,552
756,326	-5	-1,527
767,155	-3,5	-1,296
777,954	-5	-1,583
788,766	-5,5	-1,613
799,565	-8	-1,963
810,371	-10	-2,245
821,182	-12	-2,313
831,975	-13	-2,581
842,781	-14	-2,657
853,58	-15,5	-2,853
864,391	-18,5	-3,15
875,179	-19,5	-3,499
885,996	-19	-3,499
896,802	-19,5	-3,499
907,607	-19,5	-3,499
918,413	-19,5	-3,498
929,212	-19,5	-3,499
940,011	-19	-3,499
950,823	-19	-3,499
961,628	-19	-3,499
972,445	-19	-3,499
983,263	-19	-3,499
994,074	-19	-3,499
1004,879	-19	-3,5
1015,685	-19	-3,499
1026,484	-19	-3,499
1037,278	-19	-3,499
1048,077	-19	-3,499
1058,894	-19	-3,498
1069,7	-18,5	-3,496
1080,487	-18,5	-3,481
1091,293	-18,5	-3,482
1102,098	-18	-3,466
1112,897	-16,5	-3,417
1123,703	-14,5	-3,339
1134,508	-12,5	-3,157
1145,301	-11,5	-3,028
1156,101	-10	-2,778
1166,9	-7	-2,433
1177,712	-7,5	-2,414
1188,493	-5,5	-2,047
1199,286	-3,5	-1,605
1210,098	-2,5	-1,389
1220,897	-2	-1,144
1231,684	-1	-0,793
1242,502	-0,5	-0,692
1253,295	1,5	-0,386
1264,101	1,5	-0,353
1274,9	2,5	-0,179
1285,729	2	-0,236
1296,535	2,5	-0,132
1307,322	2,5	-0,004
1318,128	2,5	-0,001
1328,939	2,5	-0,001
1339,726	2,5	-0,002
1350,52	2	-0,015
1361,313	2	-0,031
1372,112	2	-0,048
1382,924	1	-0,128
1393,729	0,5	-0,202
1404,535	1	-0,144
1415,34	0	-0,344
1426,127	-0,5	-0,649
1436,933	-1	-0,803
1447,738	-1,5	-0,99
1458,544	-2	-1,119
1469,331	-2,5	-1,27
1480,13	-2,5	-1,242
1490,936	-1	-0,801
1501,711	-1	-0,784
1512,504	-1,5	-0,977
1523,31	-1,5	-1,074
1534,103	-3	-1,374
1544,897	-4	-1,536
1555,69	-4,5	-1,559
1566,495	-5	-1,673
1577,295	-6,5	-1,938
1588,088	-9	-2,223
1598,875	-15	-2,85
1609,669	-17,5	-3,236
1620,474	-17,5	-3,372
1631,286	-17,5	-3,344
1642,091	-17,5	-3,322
1652,896	-17,5	-3,445
1663,684	-17,5	-3,497
1674,495	-17,5	-3,5
1685,295	-17,5	-3,499
1696,094	-17	-3,499
1706,905	-17,5	-3,499
1717,693	-17,5	-3,499
1728,492	-17,5	-3,498
1739,279	-17,5	-3,498
1750,091	-17,5	-3,498
1760,884	-17,5	-3,498
1771,69	-17	-3,498
1782,507	-17,5	-3,498
1793,306	-17,5	-3,498
1804,106	-17,5	-3,498
1814,899	-17,5	-3,497
1825,693	-17	-3,496
1836,492	-17	-3,496
1847,291	-17	-3,494
1858,091	-17	-3,489
1868,89	-17	-3,489
1879,677	-16,5	-3,476
1890,477	-17	-3,475
1901,276	-16,5	-3,476
1912,076	-16,5	-3,478
1922,875	-16,5	-3,479
1933,668	-16,5	-3,488
1944,474	-16,5	-3,49
1955,267	-16,5	-3,494
1966,049	-16,5	-3,491
1976,842	-16,5	-3,498
1987,629	-16,5	-3,499
1998,441	-16,5	-3,494
2009,234	-16	-3,383
2020,027	-16,5	-3,408
2030,827	-16	-3,42
2041,62	-16	-3,322
2052,426	-16	-3,17
2063,219	-16	-3,346
2074,006	-16	-3,5
2084,8	-15,5	-3,499
2095,593	-16	-3,498
2106,387	-16	-3,496
2117,174	-16	-3,495
2127,979	-15,5	-3,493
2138,779	-15,5	-3,488
2149,572	-15	-3,481
2160,365	-15,5	-3,475
2171,153	-15	-3,486
2181,958	-15	-3,492
2192,752	-15	-3,495
2203,557	-15	-3,495
2214,356	-15	-3,497
2225,156	-15	-3,498
2235,949	-15	-3,414
2246,742	-7,5	-2,409
2257,542	-2	-1,493
2268,335	0	-0,684
2279,141	1	-0,286
2289,934	0	-0,485
2300,727	1	-0,208
2311,521	1,5	-0,145
2322,32	2,5	-0,041
2333,108	2,5	-0,035
2343,901	2,5	-0,017
2354,706	3	-0,003
2365,5	3	-0,001
2376,287	2,5	-0,18
2387,092	0	-0,795
2397,88	-0,5	-1,032
2408,685	-2,5	-1,793
2419,473	-5,5	-2,53
2430,254	-8	-3,017
2441,047	-12,5	-3,42
2451,847	-13,5	-3,485
2462,64	-13,5	-3,497
2473,44	-13,5	-3,499
2484,233	-13,5	-3,332
2495,02	-10,5	-2,916
2505,826	-7,5	-2,599
2516,625	-4,5	-2,258
2527,418	-2,5	-1,718
2538,212	-0,5	-1,162
2549,005	0	-0,59
2559,787	1,5	-0,119
2570,562	2,5	-0,035
2581,367	3	-0,003
2592,155	2,5	-0,001
2602,942	3	-0,154
2613,747	0,5	-0,646
2624,541	-0,5	-1,078
2635,322	-1	-1,313
2646,128	-2	-1,822
2656,933	-3	-2,273
2667,72	-4,5	-2,629
2678,514	-6	-2,977
2689,307	-7,5	-3,302
2700,089	-8,5	-3,398
2710,876	-10,5	-3,464
2721,675	-11	-3,492
2732,463	-11	-3,496
2743,256	-11	-3,498
2754,05	-11	-3,499
2764,855	-11	-3,343
2775,642	-10,5	-3,134
2786,436	-6,5	-2,747
2797,235	-4,5	-2,427
2808,022	-3,5	-2,215
2818,834	-2	-1,926
2829,639	-1	-1,48
2840,421	-0,5	-1,244
2851,208	0	-0,985
2861,995	0	-0,736
2872,789	1	-0,324
2883,582	1,5	-0,128
2894,375	2,5	-0,032
2905,163	2,5	-0,01
2915,956	3	-0,003
2926,756	3	-0,001
2937,567	3	-0,232
2948,354	2	-0,371
2959,142	0,5	-0,584
2969,941	-0,5	-0,914
2980,735	-1	-1,321
2991,528	-1	-1,483
3002,327	-1,5	-1,872
3013,133	-3	-2,317
3023,932	-3	-2,418
3034,725	-5	-2,953
3045,531	-6,5	-3,133
3056,33	-6	-3,186
3067,118	-5,5	-3,127
3077,917	-5,5	-3,129
3088,716	-5,5	-3,124
3099,51	-7	-3,344
3110,309	-9	-3,464
3121,115	-9	-3,479
3131,908	-9	-3,475
3142,689	-9	-3,477
3153,489	-9	-3,486
3164,264	-9	-3,487
3175,063	-9	-3,492
3185,851	-9	-3,49
3196,656	-9,5	-3,495
3207,45	-9	-3,494
3218,237	-9	-3,494
3229,042	-9	-3,491
3236,824	2,5	-0,001

File: _4.txt
Time (s)	Load (N)	Displacement (mm)
0	0	-0,031
10,546	0	-0,378
20,992	1,5	0
31,437	1,5	-0,001
41,882	1,5	-0,002
52,34	1,5	-0,006
62,803	1,5	-0,011
73,273	1,5	-0,01
83,748	2	-0,009
94,205	1,5	-0,01
104,663	2	-0,015
115,114	0,5	-0,094
125,578	0,5	-0,147
136,053	1	-0,068
146,5	0,5	-0,117
156,95	0	-0,18
167,419	0	-0,282
177,913	-1	-0,538
188,382	-1,5	-0,649
198,864	-3,5	-0,974
209,369	-5	-1,242
219,844	-6,5	-1,473
230,332	-6,5	-1,571
240,813	-7	-1,639
251,3	-7,5	-1,695
261,776	-8,5	-1,803
272,269	-10	-2,062
282,757	-12,5	-2,276
293,259	-16	-2,596
303,767	-17	-2,763
314,279	-19	-2,864
324,796	-18,5	-2,874
335,284	-21	-3,212
345,771	-21,5	-3,499
356,27	-21,5	-3,494
366,788	-21,5	-3,492
377,305	-21	-3,468
387,805	-20,5	-3,456
398,328	-21	-3,488
408,839	-21	-3,496
419,357	-21	-3,499
429,85	-21	-3,293
440,368	-20,5	-3,135
450,855	-18	-2,98
461,342	-16,5	-2,802
471,842	-10	-2,063
482,353	-6,5	-1,7
492,835	-5	-1,445
503,34	-3	-1,111
513,845	-2	-0,868
524,345	-0,5	-0,523
534,832	0,5	-0,2
545,332	2,5	-0,025
555,813	2,5	-0,015
566,306	2,5	-0,006
576,8	3	-0,001
587,299	3	0
597,793	2,5	-0,196
608,298	-1	-0,852
618,785	-2,5	-1,091
629,267	-4,5	-1,697
639,766	-8,5	-2,367
650,254	-12	-2,919
660,741	-15	-3,271
671,228	-16	-3,329
681,698	-16,5	-3,355
692,179	-18	-3,406
702,673	-16	-3,419
713,154	-17,5	-3,403
723,623	-19	-3,452
734,099	-19,5	-3,479
744,592	-19,5	-3,483
755,086	-19,5	-3,491
765,555	-19,5	-3,492
776,036	-19,5	-3,494
786,53	-19,5	-3,494
797,047	-19,5	-3,497
807,547	-19,5	-3,499
818,022	-19,5	-3,5
828,509	-19,5	-3,135
839,003	-17	-2,936
849,508	-14,5	-2,699
860,008	-15	-2,698
870,507	-13,5	-2,58
880,994	-12	-2,492
891,482	-11	-2,324
901,951	-8,5	-2,085
912,433	-5,5	-1,718
922,92	-5	-1,47
933,407	-3	-1,201
943,901	-3	-1,129
954,382	-2,5	-1,06
964,864	-2	-1,066
975,357	-1,5	-0,86
985,838	-1	-0,712
996,326	-0,5	-0,74
1006,825	-1	-0,789
1017,313	-1	-0,799
1027,806	-1	-0,793
1038,311	-2	-1,003
1048,781	-3,5	-1,412
1059,274	-4	-1,369
1069,774	-4,5	-1,507
1080,255	-10	-2,33
1090,742	-16,5	-3,002
1101,224	-18,5	-3,412
1111,717	-18,5	-3,236
1122,247	-18,5	-3,461
1132,74	-18,5	-3,499
1143,227	-18,5	-3,499
1153,709	-18,5	-3,498
1164,19	-18,5	-3,492
1174,678	-18,5	-3,485
1185,165	-15	-3,428
1195,652	-14,5	-3,286
1206,134	-14	-3,224
1216,627	-11,5	-2,922
1227,109	-9	-2,559
1237,608	-5,5	-1,991
1248,077	-3,5	-1,622
1258,559	-2	-1,307
1269,028	-2,5	-1,191
1279,504	-1,5	-0,975
1289,979	0	-0,886
1300,466	-2	-1,22
1310,96	-3	-1,593
1321,441	-3	-1,53
1331,941	-3,5	-1,706
1342,446	-6	-2,294
1352,921	-6	-2,21
1363,403	-5,5	-2,206
1373,896	-6,5	-2,341
1384,39	-7	-2,482
1394,883	-7,5	-2,463
1405,364	-6	-2,324
1415,852	-5	-2,2
1426,322	-4,5	-1,927
1436,815	-4	-1,828
1447,308	-3	-1,607
1457,789	-2	-1,225
1468,277	-1,5	-1,026
1478,758	1	-0,531
1489,24	2,5	-0,001
1499,727	3	-0,002
1510,208	3	-0,003
1520,684	3	-0,004
1531,159	3	-0,01
1541,647	2,5	-0,023
1552,122	2	-0,061
1562,597	2	-0,057
1573,091	2,5	-0,051
1583,578	3	-0,035
1594,072	3	-0,018
1604,559	3	-0,011
1615,034	3	-0,009
1625,51	3	-0,012
1635,997	3	-0,01
1646,479	3	-0,006
1656,966	3	-0,004
1667,453	3	-0,008
1677,941	3	-0,011
1688,422	3	-0,008
1698,904	3	-0,005
1709,379	3	-0,004
1719,854	3	-0,006
1730,33	3	-0,012
1740,805	2,5	-0,013
1751,281	2,5	-0,03
1761,762	2	-0,069
1772,243	1,5	-0,129
1782,725	0	-0,438
1793,206	-1,5	-1,014
1803,688	-4,5	-1,554
1814,169	-4,5	-1,644
1824,644	-5,5	-1,817
1835,114	-3	-1,42
1845,589	-2	-1,208
1856,071	-1,5	-1,056
1866,546	-0,5	-0,75
1877,021	-0,5	-0,605
1887,509	0	-0,473
1897,99	0	-0,399
1908,472	0	-0,373
1918,947	0	-0,471
1929,428	-0,5	-0,694
1939,922	-0,5	-0,72
1950,409	-0,5	-0,784
1960,891	-2	-1,177
1971,378	-3,5	-1,439
1981,847	-5	-1,765
1992,323	-9	-2,373
2002,792	-12,5	-2,72
2013,28	-15	-3,046
2023,755	-16,5	-3,355
2034,242	-16,5	-3,5
2044,718	-16,5	-3,499
2055,211	-16	-3,498
2065,693	-15,5	-3,497
2076,18	-15,5	-3,495
2086,667	-15,5	-3,494
2097,143	-15,5	-3,492
2107,63	-15	-3,488
2118,112	-15	-3,468
2128,581	-15	-3,445
2139,062	-13	-3,38
2149,556	-14	-3,397
2160,031	-11,5	-3,25
2170,519	-9,5	-3,048
2180,988	-8	-2,738
2191,475	-6	-2,51
2201,963	-5,5	-2,407
2212,444	-4,5	-2,097
2222,92	-3	-1,91
2233,389	-2	-1,435
2243,87	-1	-0,91
2254,352	0	-0,75
2264,827	2	-0,363
2275,297	3	-0,001
2285,772	3	-0,004
2296,241	3	-0,013
2306,723	2,5	-0,042
2317,204	1,5	-0,09
2327,704	0,5	-0,219
2338,179	0	-0,583
2348,654	-0,5	-0,914
2359,112	-2,5	-1,554
2369,593	-3,5	-1,815
2380,063	-6	-2,316
2390,544	-5,5	-2,22
2401,02	-6,5	-2,345
2411,507	-6	-2,348
2421,97	-7,5	-2,469
2432,458	-7,5	-2,588
2442,945	-11,5	-2,977
2453,427	-12,5	-3,056
2463,908	-11,5	-3,024
2474,389	-10	-2,97
2484,865	-9,5	-2,862
2495,346	-6,5	-2,6
2505,821	-8	-2,71
2516,291	-5,5	-2,53
2526,778	-4	-2,192
2537,26	-3	-2,022
2547,741	-2	-1,787
2558,216	-1	-1,608
2568,686	-0,5	-1,494
2579,161	0	-1,06
2589,643	0,5	-0,838
2600,13	0,5	-0,631
2610,611	1,5	-0,204
2621,093	2,5	-0,072
2631,568	3	-0,023
2642,044	3	-0,011
2652,531	3,5	-0,002
2663,007	3	-0,001
2673,488	2,5	-0,29
2683,975	2	-0,4
2694,445	1,5	-0,49
2704,932	0,5	-0,696
2715,402	-0,5	-1,062
2725,889	-1	-1,454
2736,364	-1,5	-1,844
2746,858	-2,5	-2,271
2757,339	-4	-2,67
2767,815	-4,5	-2,806
2778,302	-5	-3,092
2788,801	-6	-3,371
2799,277	-8,5	-3,44
2809,758	-9	-3,486
2820,246	-9,5	-3,495
2830,721	-9	-3,498
2841,196	-9	-3,5
2851,69	-9	-3,189
2862,165	-6,5	-2,945
2872,641	-5	-2,668
2883,134	-2,5	-2,191
2893,615	-1	-1,697
2904,097	0	-1,266
2914,578	0,5	-0,654
2925,06	1	-0,325
2935,547	2	-0,094
2946,022	3	-0,019
2956,51	3	-0,004
2967,003	3	-0,027
2977,473	1,5	-0,543
2987,948	0	-0,816
2998,435	0	-0,991
3008,911	0	-1,106
3019,374	-0,5	-1,345
3029,868	-1	-1,815
3040,355	-1,5	-2,09
3050,848	-1,5	-2,251
3061,324	-2,5	-2,423
3071,805	-3	-2,753
3082,293	-4,5	-3,087
3092,78	-6,5	-3,404
3103,261	-8	-3,455
3113,755	-8	-3,484
3124,236	-8	-3,493
3134,718	-8,5	-3,499
3144,101	3	-0,001