Folder: Data-filter--cyclical-tests-BEPE-project-/Cycling_tests/_40perc/_3gap/entrada

Note: README.md
# Data filter (cyclical tests BEPE project)
python aplication to treat data get by fatigue testing machine

File: _1.txt
Time (s)	Load (N)	Displacement (mm)
0	0	-0,022
10,617	0,5	0
21,188	1	-0,001
31,753	1	-0,005
42,331	1,5	-0,021
52,908	1	-0,036
63,486	0,5	-0,104
74,063	-0,5	-0,339
84,64	-1,5	-0,624
95,236	-3	-0,893
105,819	-4	-1,164
116,403	-7,5	-1,718
126,98	-11,5	-2,289
137,557	-16,5	-2,889
148,135	-20	-3,111
158,73	-20	-3,5
169,308	-19,5	-3,498
179,885	-19,5	-3,495
190,462	-19,5	-3,482
201,058	-19	-3,477
211,635	-18,5	-3,455
222,224	-14,5	-3,342
232,832	-15	-3,246
243,433	-15,5	-3,305
254,035	-15	-3,278
264,648	-17,5	-3,446
275,262	-18,5	-3,482
285,863	-18,5	-3,483
296,488	-19	-3,493
307,114	-18,5	-3,49
317,727	-18	-3,489
328,34	-18	-3,478
338,942	-17,5	-3,468
349,561	-15	-3,357
360,169	-16	-3,395
370,776	-15	-3,383
381,383	-16,5	-3,408
392,015	-18	-3,479
402,658	-18	-3,493
413,266	-18	-3,494
423,903	-17,5	-3,499
434,522	-17,5	-3,5
445,118	-18	-3,497
455,731	-17,5	-3,495
466,327	-17,5	-3,495
476,946	-17,5	-3,499
487,559	-17,5	-3,5
498,173	-16,5	-3,067
508,81	-11,5	-2,526
519,417	-8,5	-2,246
530,037	-7	-2,03
540,638	-4,5	-1,572
551,258	-2,5	-1,17
561,865	0	-0,445
572,466	1	-0,139
583,074	1	-0,215
593,675	1	-0,162
604,289	1	-0,15
614,89	1,5	-0,062
625,509	2	-0,024
636,129	2,5	-0,012
646,754	2,5	-0,003
657,386	2,5	0
668,005	1,5	-0,333
678,618	0	-0,76
689,238	-2	-1,175
699,857	-4,5	-1,955
710,453	-5	-2,095
721,072	-8	-2,594
731,679	-11	-3,012
742,281	-13	-3,291
752,9	-15	-3,444
763,52	-16,5	-3,488
774,121	-16,5	-3,496
784,716	-16,5	-3,499
795,318	-16,5	-3,5
805,955	-16,5	-3,465
816,563	-15,5	-3,073
827,182	-9	-2,382
837,783	-7	-2,037
848,391	-4,5	-1,656
859,004	-4	-1,575
869,618	-3	-1,292
880,231	-2,5	-1,335
890,85	-1,5	-1,064
901,452	-1	-0,845
912,053	-0,5	-0,681
922,66	0	-0,366
933,28	1,5	-0,066
943,881	2,5	-0,012
954,489	2	-0,001
965,09	1,5	-0,313
975,685	-1,5	-0,943
986,275	-2,5	-1,489
996,876	-5,5	-2,334
1007,484	-10,5	-3,08
1018,091	-15	-3,439
1028,686	-15	-3,473
1039,312	-15,5	-3,497
1049,943	-16	-3,349
1060,533	-14	-2,976
1071,158	-11	-2,734
1081,747	-10	-2,594
1092,343	-7	-2,198
1102,938	-5,5	-2,102
1113,534	-7	-2,147
1124,135	-6,5	-2,179
1134,736	-5	-1,956
1145,35	-2,5	-1,386
1155,951	-1,5	-1,122
1166,553	-0,5	-0,911
1177,16	0	-0,422
1187,755	1,5	-0,103
1198,351	2	-0,041
1208,946	2	-0,022
1219,548	2,5	-0,008
1230,149	2,5	-0,001
1240,75	2,5	-0,001
1251,358	2,5	-0,048
1261,971	2,5	-0,171
1272,578	2	-0,41
1283,174	1,5	-0,442
1293,763	2	-0,446
1304,365	0	-0,765
1314,966	-1	-0,967
1325,575	-1,5	-1,209
1336,163	-3	-1,632
1346,77	-5	-2,211
1357,36	-6,5	-2,516
1367,967	-9	-2,976
1378,568	-12	-3,335
1389,164	-13,5	-3,423
1399,765	-15	-3,456
1410,361	-15	-3,484
1420,974	-15	-3,492
1431,563	-15	-3,494
1442,165	-15	-3,496
1452,766	-15	-3,496
1463,362	-15	-3,496
1473,969	-15	-3,497
1484,582	-15	-3,498
1495,19	-15	-3,498
1505,785	-15	-3,499
1516,387	-15	-3,438
1527	-14,5	-3,12
1537,613	-9,5	-2,624
1548,221	-9	-2,514
1558,822	-8	-2,392
1569,412	-7	-2,325
1580,025	-6,5	-2,134
1590,632	-5,5	-2,039
1601,222	-5	-1,939
1611,829	-4	-1,825
1622,43	-3,5	-1,746
1633,038	-4,5	-1,789
1643,627	-3	-1,66
1654,235	-2	-1,289
1664,83	-1	-0,921
1675,419	-0,5	-0,753
1686,015	-0,5	-0,815
1696,616	0	-0,71
1707,218	-0,5	-0,89
1717,819	-0,5	-0,752
1728,414	-1,5	-1,135
1739,028	-1,5	-1,086
1749,635	-1	-1,035
1760,213	-1,5	-1,111
1770,802	-3	-1,502
1781,385	-4	-1,68
1791,987	-4,5	-1,81
1802,582	-4,5	-1,868
1813,184	-5	-1,82
1823,779	-5	-1,978
1834,38	-5,5	-2,059
1844,982	-5	-1,953
1855,571	-7	-2,306
1866,167	-8	-2,405
1876,744	-10,5	-2,706
1887,357	-9	-2,546
1897,959	-10	-2,626
1908,548	-8,5	-2,575
1919,149	-6,5	-2,336
1929,745	-5	-2,094
1940,34	-6	-2,152
1950,93	-6,5	-2,292
1961,531	-6,5	-2,292
1972,12	-8	-2,565
1982,722	-8,5	-2,609
1993,329	-9	-2,642
2003,931	-9,5	-2,701
2014,538	-8,5	-2,646
2025,145	-7,5	-2,451
2035,747	-6,5	-2,34
2046,354	-5,5	-2,172
2056,944	-4,5	-2,015
2067,539	-4	-1,858
2078,134	-3	-1,783
2088,736	-3	-1,602
2099,337	-1	-1,188
2109,945	-1	-1,17
2120,546	-1	-0,978
2131,141	0	-0,716
2141,749	-0,5	-0,745
2152,344	-0,5	-0,834
2162,952	0	-0,533
2173,553	0	-0,704
2184,16	-0,5	-0,956
2194,768	-0,5	-0,905
2205,363	-0,5	-0,984
2215,965	-1	-0,99
2226,56	-2	-1,392
2237,155	-3,5	-1,825
2247,745	-4	-1,902
2258,37	-4	-1,878
2268,966	-5,5	-2,174
2279,555	-8	-2,527
2290,15	-9,5	-2,738
2300,74	-12	-2,911
2311,341	-11,5	-3,002
2321,937	-13,5	-3,176
2332,526	-13,5	-3,173
2343,121	-12,5	-3,112
2353,723	-11	-2,947
2364,324	-11,5	-2,97
2374,931	-11	-2,86
2385,527	-9	-2,666
2396,116	-8,5	-2,664
2406,706	-10,5	-2,862
2417,301	-9,5	-2,781
2427,884	-9,5	-2,754
2438,486	-9	-2,701
2449,087	-9,5	-2,712
2459,677	-8,5	-2,64
2470,29	-7,5	-2,57
2480,891	-7,5	-2,596
2491,493	-8	-2,629
2502,094	-8	-2,666
2512,69	-9	-2,792
2523,273	-9,5	-2,814
2533,886	-6,5	-2,483
2544,488	-7,5	-2,59
2555,095	-7	-2,502
2565,703	-8	-2,61
2576,292	-11	-2,996
2586,893	-11	-3,012
2597,489	-10	-2,952
2608,096	-10	-2,906
2618,692	-10,5	-2,964
2629,293	-10,5	-2,996
2639,894	-10,5	-2,959
2650,484	-9,5	-2,913
2661,073	-9	-2,792
2671,675	-8	-2,686
2682,276	-5	-2,345
2692,877	-4,5	-2,266
2703,479	-5	-2,326
2714,086	-5	-2,222
2724,681	-4	-2,109
2735,277	-3	-1,879
2745,866	-3	-1,716
2756,456	-2	-1,483
2767,051	-0,5	-1,02
2777,646	0	-0,631
2788,242	1	-0,166
2798,837	1,5	-0,067
2809,421	1,5	-0,049
2820,01	2	-0,017
2830,599	2,5	-0,013
2841,201	2,5	-0,013
2851,796	2,5	-0,007
2862,392	2,5	-0,002
2872,993	2,5	-0,004
2883,582	2,5	-0,004
2894,184	2,5	-0,004
2904,773	2	-0,006
2915,363	2,5	-0,016
2925,964	2,5	-0,015
2936,577	2,5	-0,018
2947,173	2	-0,026
2957,78	2,5	-0,015
2968,376	2	-0,016
2978,959	2	-0,025
2989,554	2	-0,036
3000,15	2	-0,042
3010,751	2,5	-0,014
3021,365	2,5	-0,008
3031,96	2,5	-0,004
3042,561	2,5	-0,001
3053,157	2,5	-0,002
3063,758	2,5	-0,001
3074,354	2,5	-0,001
3084,937	2,5	-0,001
3095,526	2,5	-0,001
3106,122	2,5	-0,002
3116,729	2,5	-0,002
3127,318	2,5	-0,001
3137,92	2,5	-0,001
3148,521	2,5	-0,268
3159,117	2	-0,346
3169,706	1	-0,524
3173,816	2,5	-0,001