Folder: Data-filter--cyclical-tests-BEPE-project-/ensaios_Ciclicos/_20perc/_1gap/entrada

Note: README.md
# Data filter (cyclical tests BEPE project)
python aplication to treat data get by fatigue testing machine

File: _3.txt
Time (s)	Load (N)	Displacement (mm)
0	0,5	-0,046
11,905	-30	-3,045
23,89	-5	-1,171
35,706	-20,5	-2,313
47,867	-21,5	-3,077
59,56	-6	-1,088
71,338	-14	-2,334
83,335	-0,5	-0,301
94,763	-6	-1,354
106,7	-10,5	-1,552
118,165	2,5	-0,395
130,074	-16,5	-2,21
141,552	2,5	-0,382
152,987	-27,5	-3,493
164,392	-1,5	-0,653
175,719	-4	-1,138
187,461	-16	-2,276
198,746	3,5	-0,01
210,056	-12	-2,384
221,233	-26,5	-3,498
232,38	-11,5	-1,888
243,396	0,5	-0,238
254,435	4	-0,001
265,655	-9,5	-2,115
276,898	-25,5	-3,496
288,135	-10,5	-1,898
299,211	1,5	-0,167
310,544	-4,5	-1,3
321,464	-11,5	-2,447
332,533	-25	-3,493
343,506	-25	-3,5
354,516	-11,5	-2,049
365,825	4	-0,008
376,72	4	-0,001
387,634	0	-0,699
398,841	-16,5	-3,053
409,616	-22	-3,406
420,524	-24,5	-3,497
431,323	-24,5	-3,499
442,098	-24,5	-3,286
452,904	-21	-2,872
463,769	-9,5	-1,929
474,542	-6	-1,506
485,32	-3	-1,105
496,119	-0,5	-0,568
506,847	0	-0,49
517,52	-0,5	-0,599
528,194	0	-0,548
539,293	4	-0,001
550,038	4	-0,001
560,73	4	-0,001
571,421	4	-0,001
582,557	-5	-1,639
593,302	-8	-2,118
603,915	-6	-1,85
614,644	-7,5	-2,062
625,34	-8	-2,123
636,001	-7	-1,981
646,681	-7,5	-2,17
657,378	-9,5	-2,357
668,052	-8	-2,323
678,677	-7	-2,007
689,356	-7,5	-2,072
699,946	-4,5	-1,586
710,949	-15	-3,053
721,544	-12	-2,62
732,104	-7	-2,068
742,693	-4,5	-1,535
753,289	-2,5	-0,962
763,812	4	0
774,395	4	-0,003
784,967	4	-0,019
795,55	1,5	-0,2
806,482	4	-0,006
817,029	3	-0,079
827,588	0	-0,454
838,142	-3	-1,157
848,713	-7,5	-1,812
859,231	-19	-2,87
869,76	-22,5	-3,499
880,295	-22,5	-3,491
890,816	-18	-3,338
901,366	-10,5	-2,612
911,92	-5	-1,798
922,389	2	-0,556
932,846	4	-0,002
943,34	2,5	-0,108
953,827	-3	-1,208
964,375	-9	-1,972
974,886	-18,5	-2,884
985,355	-22,5	-3,498
995,855	-21	-3,438
1006,324	-9	-2,458
1016,848	-4	-1,616
1027,365	1	-0,702
1037,864	4	-0,001
1048,358	3,5	-0,066
1058,815	-2	-1,104
1069,309	-9	-2,133
1080,174	-3,5	-1,334
1090,655	-11,5	-2,26
1101,167	-20,5	-3,121
1111,636	-22	-3,498
1122,088	-20	-3,429
1132,533	-10,5	-2,622
1143,008	-4,5	-1,652
1153,526	-1,5	-0,881
1163,977	4	0
1174,441	4	-0,025
1184,922	0,5	-0,449
1195,404	-3	-1,326
1205,867	-11	-2,341
1216,366	-21,5	-3,118
1226,812	-21,5	-3,497
1237,311	-21	-3,473
1247,768	-13	-2,933
1258,238	-6	-1,991
1268,701	-1,5	-0,913
1279,189	4	-0,001
1289,634	3,5	-0,054
1300,091	-0,5	-0,735
1310,585	-4	-1,457
1321,042	-13	-2,464
1331,506	-21,5	-3,5
1341,975	-21,5	-3,491
1352,45	-16,5	-3,36
1362,896	-7,5	-2,369
1373,377	-2,5	-1,205
1383,847	4	0
1394,304	4	-0,018
1404,755	0	-0,609
1415,201	-6	-1,778
1425,658	-19,5	-3,047
1436,08	-21	-3,493
1446,513	-15	-3,255
1456,988	-6,5	-2,246
1467,458	-2,5	-1,288
1477,915	4	-0,267
1488,373	4	-0,003
1498,812	2	-0,142
1509,269	-3	-1,26
1519,739	-12	-2,394
1530,178	-21	-3,5
1540,66	-21	-3,492
1551,081	-13,5	-3,027
1561,55	-4,5	-1,824
1572,014	0,5	-0,692
1582,471	4	-0,002
1592,935	2,5	-0,097
1603,362	-3	-1,24
1613,807	-13,5	-2,6
1624,319	-21	-3,494
1634,752	-20	-3,479
1645,222	-14	-3,166
1655,637	-3,5	-1,629
1666,077	3,5	-0,311
1676,498	4	-0,015
1686,949	0	-0,554
1697,365	-7	-2,015
1707,822	-20	-3,185
1718,298	-20,5	-3,497
1728,737	-17,5	-3,406
1739,146	-6	-2,059
1749,568	-0,5	-0,75
1759,995	4	-0,002
1770,428	2,5	-0,118
1780,868	-2	-1,189
1791,277	-13,5	-2,608
1801,729	-20	-3,499
1812,168	-19,5	-3,468
1823,003	-20,5	-3,497
1833,431	-15	-3,312
1843,876	-6	-2,307
1854,28	0	-0,791
1864,719	4	-0,002
1875,129	0,5	-0,366
1885,574	-4	-1,508
1896,001	-13,5	-2,638
1906,405	-20	-3,497
1916,826	-14,5	-3,249
1927,548	-15	-3,317
1937,969	-5	-2,047
1948,39	3	-0,54
1958,782	4	-0,007
1969,209	0,5	-0,401
1979,588	-7	-2,037
1989,974	-19,5	-3,5
2000,365	-18	-3,442
2010,757	-6	-2,238
2021,142	-0,5	-0,86
2031,552	4	-0,003
2041,961	1	-0,378
2052,334	-5	-1,826
2062,744	-18,5	-3,122
2073,195	-19,5	-3,496
2083,623	-13	-3,197
2094,026	-4	-1,792
2104,423	3	-0,405
2114,827	4	-0,008
2125,212	0	-0,62
2135,64	-4,5	-1,724
2146,013	-19	-3,284
2156,386	-18,5	-3,475
2203,076	-8	-2,678
2213,461	-2	-1,221
2223,847	4	-0,001
2234,238	2	-0,179
2244,635	-2,5	-1,557
2255,045	-14,5	-2,824
2265,43	-18	-3,494
2275,84	-10	-2,978
2286,201	-2	-1,347
2296,616	4,5	-0,015
2306,984	3,5	-0,062
2317,411	0	-0,899
2327,803	-8,5	-2,347
2338,194	-18	-3,499
2348,567	-16,5	-3,452
2358,965	-7	-2,622
2369,344	-2	-1,325
2379,718	4,5	-0,001
2390,103	3,5	-0,04
2400,471	-1	-1,282
2410,85	-10	-2,663
2421,254	-16,5	-3,497
2431,633	-10,5	-3,17
2442,048	-3	-1,904
2452,428	3,5	-0,384
2462,813	4,5	-0,014
2473,198	0	-0,811
2483,62	-4	-2,056
2493,981	-15	-3,499
2504,391	-13,5	-3,447
2514,77	-3,5	-2,139
2525,155	2,5	-0,59
2535,559	4,5	-0,005
2545,962	1,5	-0,303
2556,372	-2	-1,822
2566,739	-12,5	-3,376
2577,137	-12,5	-3,478
2587,51	-4	-2,479
2597,937	-1	-1,22
2608,323	4	-0,001
2618,696	3	-0,119
2629,124	0	-1,171
2639,515	-6	-2,637
2649,894	-12	-3,498
2660,28	-9,5	-3,373
2670,665	-2,5	-1,915
2681,05	4	-0,241
2691,43	4	-0,056
2701,857	0	-1,297
2712,237	-10	-2,999
2722,628	-11,5	-3,486
2733,037	-4,5	-2,644
2743,423	0	-0,985
2753,808	4,5	-0,002
2764,188	2	-0,185
2774,573	-1	-1,789
2784,965	-10,5	-3,176
2795,362	-10,5	-3,488
2805,741	-4,5	-2,826
2816,145	-1,5	-1,644
2826,536	3,5	-0,471
2836,91	4	-0,009
2847,325	1	-0,528
2857,74	-1	-1,858
2868,15	-10	-3,345
2878,553	-10	-3,484
2888,933	-3,5	-2,644
2899,324	-0,5	-1,264
2909,691	4,5	-0,001
2920,071	3	-0,083
2930,456	0	-1,275
2940,842	-7,5	-2,946
2951,227	-10	-3,493
2961,594	-4	-2,838
2971,974	-0,5	-1,313
2982,365	4,5	-0,001
2992,769	1,5	-0,228
3003,142	-1	-1,929
3013,576	-9	-3,154
3023,937	-10	-3,488
3034,328	-4	-2,74
3044,708	-0,5	-1,315
3055,123	4	0
3065,508	4	-0,04
3075,882	0	-1,04
3086,274	-3	-2,431
3096,671	-9,5	-3,499
3107,05	-8	-3,429
3117,436	-2	-2,174
3127,809	1	-0,694
3138,2	4	-0,004
3148,598	1	-0,469
3158,977	-1	-2,049
3169,345	-9	-3,499
3179,772	-8,5	-3,475
3190,145	-2	-2,461
3200,525	0	-1,138
3206,68	4	-0,001