Folder: Data-filter--cyclical-tests-BEPE-project-/ensaios_Ciclicos/sem_TC/entrada (part 2)

File: _7.txt
Time (s)	Load (N)	Displacement (mm)
0	-0,5	-0,036
10,877	0	-0,367
21,682	1,5	-0,092
32,494	2	-0,053
43,317	0,5	-0,42
54,146	0,5	-0,476
64,952	2,5	-0,154
75,787	2,5	0
86,622	2,5	0
97,47	2,5	-0,005
108,293	3	-0,001
119,111	3	-0,002
129,952	3	-0,006
140,788	2,5	-0,042
151,599	-0,5	-0,209
162,422	-3	-0,449
173,264	-4,5	-0,732
184,087	-10,5	-1,319
194,934	-13	-1,561
205,77	-14,5	-1,738
216,611	-18,5	-2,031
227,465	-19	-2,144
238,318	-25	-2,644
249,189	-32,5	-3,499
260,037	-32	-3,491
270,86	-29,5	-3,41
281,731	-26	-3,322
292,591	-22,5	-3,057
303,432	-19	-2,707
314,285	-14	-2,239
325,139	-9,5	-1,733
335,992	-8	-1,542
346,858	-4,5	-1,097
357,693	-5	-1,111
368,528	-1,5	-0,83
379,382	2,5	-0,387
390,223	3,5	-0,001
401,083	3,5	-0,002
411,96	3,5	-0,003
422,795	3	-0,018
433,631	3	-0,054
444,472	1	-0,125
455,316	0,5	-0,164
466,167	2	-0,092
477,026	2	-0,101
487,898	2	-0,08
498,793	3	-0,04
509,67	3	-0,027
520,53	3,5	-0,022
531,401	3	-0,049
542,26	0,5	-0,2
553,126	1,5	-0,104
564,009	3,5	-0,032
574,875	3	-0,035
585,728	3,5	-0,028
596,593	3	-0,038
607,453	2,5	-0,058
618,3	1,5	-0,135
629,154	0,5	-0,226
640,019	-1	-0,55
650,878	0	-0,325
661,726	-1	-0,386
672,573	-0,5	-0,438
683,414	-2,5	-0,706
694,274	-4	-0,932
705,127	-6	-1,135
715,981	-10	-1,619
726,846	-11,5	-1,708
737,693	-12	-1,823
748,535	-15	-2,095
759,376	-20	-2,502
770,23	-28,5	-3,158
781,077	-28,5	-3,13
791,93	-28,5	-3,206
802,784	-23,5	-2,895
813,631	-25,5	-2,979
824,466	-22	-2,75
835,332	-21	-2,638
846,179	-19,5	-2,471
857,021	-16	-2,292
867,874	-13	-1,958
878,733	-10,5	-1,7
889,575	-9	-1,569
900,416	-5	-1,119
911,269	-3	-0,885
922,111	-2	-0,68
932,964	-1	-0,51
943,812	0	-0,305
954,665	1,5	-0,102
965,53	3,5	-0,032
976,378	3,5	-0,011
987,231	3,5	-0,003
998,09	3,5	-0,001
1008,95	3	-0,254
1019,809	-1,5	-0,712
1030,663	-2	-0,892
1041,498	-3	-1,078
1052,351	-6	-1,551
1063,211	-7,5	-1,815
1074,058	-11	-2,236
1084,899	-12,5	-2,42
1095,753	-15	-2,65
1106,6	-17,5	-3,027
1117,46	-25,5	-3,427
1128,307	-27	-3,479
1139,16	-27,5	-3,494
1150,014	-27,5	-3,497
1160,867	-27,5	-3,499
1171,714	-27	-3,499
1182,568	-27,5	-3,343
1193,415	-27	-3,181
1204,263	-27	-3,26
1215,11	-26	-3,066
1225,969	-20	-2,656
1236,817	-15	-2,294
1247,676	-13,5	-2,159
1258,524	-9	-1,725
1269,371	-4,5	-1,124
1280,218	-2	-0,804
1291,066	-1,5	-0,679
1301,919	0	-0,342
1312,754	0	-0,292
1323,602	0,5	-0,241
1334,461	3,5	-0,043
1345,315	4	-0,013
1356,156	4	-0,003
1367,009	4	-0,001
1377,863	4	0
1388,704	4	-0,076
1399,557	4	-0,244
1410,399	3,5	-0,203
1421,24	3,5	-0,316
1432,082	2,5	-0,49
1442,935	0,5	-0,596
1453,788	0	-0,617
1464,636	1,5	-0,556
1475,483	0	-0,572
1486,331	2	-0,467
1497,184	3,5	-0,284
1508,037	4	-0,207
1518,897	3,5	-0,374
1529,744	2,5	-0,418
1540,603	1,5	-0,517
1551,451	0	-0,651
1562,292	-2,5	-1,139
1573,152	-3	-1,264
1583,987	-4	-1,414
1594,834	-5,5	-1,654
1605,676	-8	-1,997
1616,523	-8	-2,052
1627,364	-9	-2,22
1638,188	-6	-1,942
1649,035	-7,5	-2,092
1659,907	-7,5	-2,06
1670,76	-8	-2,113
1681,619	-10	-2,424
1692,467	-9,5	-2,256
1703,308	-7,5	-2,046
1714,155	-5	-1,734
1725,003	-5,5	-1,821
1735,844	-6,5	-1,915
1746,686	-3,5	-1,354
1757,533	-2,5	-1,127
1768,38	-2	-1,066
1779,24	-3	-1,302
1790,081	3	-0,342
1800,929	3	-0,376
1811,776	0	-0,698
1822,623	4	-0,232
1833,471	3,5	-0,375
1844,318	4	-0,096
1855,165	4	0
1866,013	4	0
1876,854	4	-0,243
1887,696	3,5	-0,306
1898,549	4	-0,003
1909,396	4	-0,023
1920,238	4	-0,137
1931,079	1,5	-0,527
1941,92	-2	-1,052
1952,768	-3	-1,324
1963,609	-5	-1,748
1974,457	-4	-1,552
1985,298	-2,5	-1,163
1996,133	-1,5	-0,95
2006,987	-3	-1,365
2017,822	-2,5	-1,206
2028,664	-1,5	-1,043
2039,505	-1,5	-0,882
2050,346	0	-0,672
2061,176	0	-0,706
2072,017	-0,5	-0,79
2082,852	2	-0,507
2093,694	1,5	-0,681
2104,523	-2,5	-1,326
2115,365	-6	-2,116
2126,194	-5,5	-2,081
2137,029	-7,5	-2,613
2147,871	-7	-2,548
2158,712	-8,5	-2,86
2169,541	-9	-2,909
2180,395	-15	-3,43
2191,218	-15	-3,443
2202,072	-16	-3,477
2212,913	-16	-3,474
2223,766	-14,5	-3,425
2234,614	-14,5	-3,419
2245,473	-10,5	-3,175
2256,303	-10	-3,197
2267,15	-8	-2,843
2277,997	-8,5	-2,999
2288,851	-9	-3,004
2299,692	-8,5	-2,981
2310,539	-10	-3,225
2321,393	-6,5	-2,732
2332,234	-6	-2,607
2343,088	-9	-3,012
2353,935	-9	-3,118
2364,782	-7	-2,839
2375,636	-5	-2,537
2386,477	-6,5	-2,847
2397,324	-7,5	-3,041
2408,166	-9	-3,254
2419,013	-10	-3,365
2429,867	-11	-3,41
2440,708	-11	-3,416
2451,549	-11,5	-3,44
2462,409	-12	-3,465
2473,25	-12,5	-3,483
2484,091	-12	-3,478
2494,933	-12	-3,486
2505,78	-11,5	-3,495
2516,622	-11,5	-3,496
2527,469	-11,5	-3,499
2538,31	-11	-3,5
2549,152	-6	-2,97
2559,993	-3	-2,531
2570,835	-2,5	-2,5
2581,682	-3	-2,553
2592,529	-1,5	-2,28
2603,377	-1,5	-2,246
2614,224	-1	-2,128
2625,071	-0,5	-1,839
2635,913	0	-1,799
2646,754	0	-1,758
2657,602	-0,5	-1,825
2668,449	0	-1,69
2679,296	0	-1,471
2690,138	0	-1,595
2700,979	0	-1,465
2711,832	0,5	-1,259
2722,674	1	-0,962
2733,527	1	-0,724
2744,369	1,5	-0,545
2755,216	1,5	-0,436
2766,063	1,5	-0,615
2776,905	1,5	-0,74
2787,734	1	-0,887
2798,606	1,5	-0,617
2809,453	1,5	-0,556
2820,294	1,5	-0,595
2831,136	1	-0,683
2841,971	1	-0,588
2852,824	1,5	-0,486
2863,672	1,5	-0,432
2874,519	2	-0,214
2885,373	3	-0,106
2896,22	4	-0,037
2907,049	4	-0,02
2917,891	4	-0,012
2928,75	4	-0,006
2939,591	4	-0,003
2950,427	4	-0,002
2961,268	4	-0,002
2972,11	4	-0,001
2982,951	4	0
2993,798	4	-0,009
3004,646	4	-0,194
3015,499	1,5	-0,618
3026,347	0	-0,77
3037,176	-0,5	-1,398
3048,023	-1	-1,772
3058,859	-1,5	-2,017
3069,7	-1,5	-2,164
3080,541	-1,5	-2,14
3091,395	-1,5	-2,192
3102,23	-2,5	-2,623
3113,09	-4,5	-3,106
3123,937	-5	-3,295
3134,778	-8,5	-3,453
3145,62	-9	-3,478
3156,467	-9	-3,49
3167,32	-9,5	-3,496
3178,168	-9,5	-3,498
3189,009	-9	-3,499
3199,851	-9	-3,5
3210,698	-9,5	-3,457
3221,545	-9	-3,362
3232,387	-9	-3,121
3243,234	-3,5	-2,763
3250,608	4	0