Folder: Data-filter--cyclical-tests-BEPE-project-/ensaios_Ciclicos/sem_TC/entrada

Note: README.md
# Data filter (cyclical tests BEPE project)
python aplication to treat data get by fatigue testing machine

File: _1.txt
Time (s)	Load (N)	Displacement (mm)
0	0	-0,021
10,761	-3	-0,766
21,489	-2,5	-0,784
32,216	-1,5	-0,653
43,105	-11	-1,642
53,839	-13	-1,838
64,578	-20	-2,486
75,318	-19,5	-2,473
86,099	-21,5	-2,686
96,922	-27,5	-3,268
107,698	-28	-3,275
118,473	-31,5	-3,418
129,23	-32	-3,435
139,964	-29,5	-3,388
150,817	-33	-3,488
162,067	-23,5	-2,49
172,896	-16	-1,86
184,025	-0,5	-0,267
195,131	3,5	-0,001
206,056	3	-0,353
216,999	-2	-0,831
228,459	-28	-3,37
239,564	-32	-3,499
250,525	-28,5	-2,849
261,697	-5,5	-0,994
272,838	3,5	-0,006
284,028	-5	-1,032
294,983	-14	-2,216
305,74	-13,5	-2,173
316,504	-14	-2,248
327,255	-13,5	-2,301
338,025	-21	-2,871
348,824	-27,5	-3,396
359,575	-28	-3,421
370,333	-28,5	-3,451
381,084	-29,5	-3,469
391,871	-30,5	-3,48
402,641	-30	-3,483
413,404	-29,5	-3,473
424,174	-29,5	-3,449
434,961	-29,5	-3,47
445,724	-29,5	-3,479
456,494	-30	-3,479
467,251	-30	-3,497
478,069	-30	-3,498
488,826	-30	-3,497
499,589	-30	-3,498
510,359	-30	-3,499
521,14	-29,5	-3,181
531,909	-23,5	-2,75
542,697	-19	-2,292
553,496	-11,5	-1,718
564,266	-10	-1,618
575,047	-5	-1,047
585,828	-0,5	-0,451
596,598	2,5	-0,079
607,385	4	-0,006
618,154	4	0
628,954	2,5	-0,492
639,747	-4,5	-1,356
650,589	-7,5	-1,748
661,466	-15	-2,487
672,229	-18	-3,006
683,023	-17,5	-3,382
693,798	-22	-3,278
704,586	-18,5	-2,835
715,379	-22,5	-3,158
726,19	-21,5	-3,123
736,99	-22	-3,192
747,789	-23,5	-3,296
758,6	-27,5	-3,47
769,394	-28,5	-3,481
780,175	-28	-3,46
790,951	-28	-3,47
801,726	-27,5	-3,461
812,507	-27,5	-3,458
823,289	-21	-3,128
834,058	-16	-2,745
844,84	-12	-2,373
855,615	-15,5	-2,69
866,39	-12	-2,315
877,16	-10,5	-2,204
887,923	-9,5	-2,036
898,704	-9	-1,972
909,462	-6	-1,635
920,231	-5,5	-1,533
931,001	-3,5	-1,129
941,767	4	-0,268
952,521	4	-0,002
963,339	4	-0,029
974,108	3	-0,064
984,878	0,5	-0,289
995,659	-1	-0,638
1006,434	-4,5	-1,054
1017,216	-10,5	-1,834
1027,991	-15,5	-2,22
1038,772	-21	-2,655
1049,542	-27,5	-3,201
1060,329	-28	-3,499
1071,111	-27,5	-3,496
1081,886	-27,5	-3,493
1092,679	-27,5	-3,491
1103,461	-27	-3,48
1114,23	-26,5	-3,45
1124,994	-16,5	-2,768
1135,745	-7,5	-1,901
1146,526	-5	-1,423
1157,296	-3	-1,083
1168,083	2,5	-0,502
1178,87	4	-0,101
1189,646	4	-0,001
1200,427	4	-0,004
1211,197	4	-0,022
1221,978	2	-0,142
1232,747	-1,5	-0,772
1243,535	-3	-0,938
1254,316	-5	-1,224
1265,091	-11	-1,849
1275,861	-12	-1,998
1286,636	-12,5	-1,968
1297,4	-15	-2,306
1308,179	-19	-2,593
1318,944	-27	-3,232
1329,702	-27	-3,499
1340,471	-27	-3,495
1351,259	-27	-3,493
1362,028	-25,5	-3,459
1372,809	-25	-3,45
1383,585	-21,5	-3,318
1394,354	-19,5	-3,137
1405,13	-17	-3,008
1415,923	-14,5	-2,75
1426,686	-8,5	-2,124
1437,456	-5,5	-1,646
1448,243	-4,5	-1,512
1459,024	-4	-1,432
1469,806	-2	-0,924
1480,563	4,5	-0,287
1491,357	4,5	0
1502,114	4,5	-0,002
1512,895	4,5	-0,003
1523,671	4,5	-0,006
1534,458	4,5	-0,008
1545,228	4,5	-0,017
1555,997	3,5	-0,03
1566,814	4	-0,028
1577,584	3,5	-0,054
1588,359	4	-0,046
1599,134	4	-0,043
1609,906	3,5	-0,058
1620,667	2	-0,141
1631,443	1,5	-0,162
1642,224	3	-0,08
1652,987	1	-0,213
1663,769	2,5	-0,108
1674,556	2	-0,158
1685,332	3	-0,088
1696,107	3,5	-0,064
1706,882	4	-0,042
1717,658	4	-0,031
1728,427	3	-0,083
1739,196	1,5	-0,178
1749,96	0	-0,365
1760,729	-1,5	-0,76
1771,481	-5	-1,344
1782,262	-7	-1,598
1793,037	-10,5	-1,983
1803,807	-15	-2,456
1814,57	-18,5	-2,678
1825,345	-24	-3,16
1836,121	-25	-3,388
1846,902	-25	-3,499
1857,666	-25	-3,496
1868,435	-24	-3,465
1879,21	-19	-3,286
1889,986	-11	-2,538
1900,755	-4,5	-1,692
1911,531	-1,5	-0,971
1922,3	4,5	-0,146
1933,075	4,5	-0,002
1943,851	4,5	-0,02
1954,62	3,5	-0,1
1965,39	0	-0,514
1976,165	-1	-0,905
1986,946	-2,5	-1,17
1997,722	-6	-1,783
2008,503	-9	-2,127
2019,272	-15	-2,792
2030,054	-18	-2,989
2040,829	-21	-3,425
2051,611	-20	-3,499
2062,38	-19,5	-3,497
2073,167	-19	-3,494
2083,937	-18	-3,472
2094,712	-16,5	-3,444
2105,487	-10	-2,977
2116,263	-7,5	-2,677
2127,038	-4,5	-2,033
2137,814	-3	-1,552
2148,577	0	-0,787
2159,352	2	-0,54
2170,122	4,5	-0,001
2180,879	4,5	-0,001
2191,643	4,5	-0,004
2202,406	4,5	-0,011
2213,169	4,5	-0,009
2223,939	4,5	-0,007
2234,708	4,5	-0,003
2245,472	4,5	-0,005
2256,235	4,5	-0,003
2267,004	4,5	-0,003
2277,78	4,5	-0,001
2288,543	4,5	0
2299,318	4,5	-0,015
2310,1	4,5	0
2320,881	4,5	-0,047
2331,669	4,5	-0,198
2342,438	4,5	-0,13
2353,201	4,5	-0,003
2363,983	4,5	-0,069
2374,752	4,5	-0,001
2385,521	4,5	-0,002
2396,297	4,5	-0,001
2407,066	4,5	-0,004
2417,836	4,5	-0,005
2428,605	4,5	-0,002
2439,374	4,5	-0,002
2450,144	4,5	-0,002
2460,913	4,5	-0,005
2471,677	4,5	-0,004
2482,452	4,5	-0,002
2493,221	4,5	-0,001
2503,991	4,5	-0,119
2514,76	0,5	-0,67
2525,53	0	-0,936
2536,299	-1	-1,27
2547,08	-2	-1,702
2557,862	-3	-2,192
2568,631	-4	-2,586
2579,412	-5,5	-3,096
2590,2	-10,5	-3,448
2600,975	-11,5	-3,491
2611,745	-11,5	-3,494
2622,52	-11,5	-3,498
2633,289	-11,5	-3,499
2644,053	-11	-3,413
2654,828	-8,5	-3,032
2665,592	-6	-2,956
2676,367	-3	-2,544
2687,136	-2	-2,359
2697,912	-1	-2,126
2708,681	0	-1,786
2719,474	-0,5	-2,018
2730,244	0,5	-1,289
2741,013	1	-0,923
2751,783	1,5	-0,272
2762,552	4	-0,037
2773,321	4,5	-0,005
2784,097	4,5	-0,032
2794,872	3	-0,44
2805,642	0	-0,959
2816,423	-1	-1,377
2827,198	-1	-1,731
2837,968	-1,5	-1,894
2848,737	-3	-2,781
2859,5	-4	-2,905
2870,27	-5,5	-3,299
2881,033	-7,5	-3,398
2891,797	-10	-3,492
2902,572	-10,5	-3,498
2913,347	-10	-3,488
2924,105	-6,5	-2,954
2934,874	-3,5	-2,741
2945,649	-1,5	-2,28
2956,413	0	-1,891
2967,188	0,5	-1,255
2977,958	1	-0,74
2988,727	2,5	-0,142
2999,502	4	-0,016
3010,272	4,5	-0,001
3021,047	4	-0,085
3031,823	0	-0,866
3042,592	-0,5	-1,354
3053,373	-1,5	-1,897
3064,155	-2,5	-2,499
3074,93	-3	-2,64
3085,706	-3	-2,808
3096,475	-4,5	-3,096
3107,256	-7	-3,404
3118,032	-9,5	-3,486
3128,801	-10	-3,497
3139,57	-10	-3,499
3150,346	-6,5	-3,047
3161,121	-3	-2,698
3171,897	-2	-2,473
3182,672	-0,5	-2,123
3193,441	0	-1,758
3204,223	0	-1,49
3214,992	0	-1,581
3225,773	0	-1,73
3232,955	4	-0,001

File: _4.txt
Time (s)	Load (N)	Displacement (mm)
0	0	-0,053
10,559	1,5	-0,008
21,046	-2	-0,266
31,546	-4,5	-0,533
42,057	-8,5	-0,884
52,544	-13	-1,415
63,05	-17	-1,737
73,561	-19,5	-2,038
84,079	-22	-2,299
94,59	-28,5	-2,829
105,101	-33,5	-3,212
115,613	-34	-3,499
126,142	-34	-3,498
136,666	-33,5	-3,495
147,189	-33	-3,495
157,719	-33	-3,494
168,242	-32,5	-3,49
178,777	-32,5	-3,486
189,307	-31,5	-3,465
199,836	-30	-3,416
210,353	-29	-3,406
220,901	-32	-3,481
231,436	-32	-3,494
242,002	-32	-3,498
252,538	-32	-3,499
263,073	-31,5	-3,499
273,62	-31,5	-3,498
284,131	-31,5	-3,498
294,655	-31,5	-3,497
305,208	-31,5	-3,498
315,755	-31,5	-3,499
326,291	-31,5	-3,499
336,838	-31	-3,498
347,398	-31,5	-3,496
357,933	-31	-3,492
368,474	-30	-3,473
379,052	-29,5	-3,46
389,575	-27,5	-3,409
400,111	-27	-3,388
410,634	-22,5	-3,142
421,163	-22,5	-3,132
431,705	-22,5	-3,13
442,258	-21,5	-2,975
452,854	-21,5	-2,981
463,407	-19,5	-2,9
473,942	-15	-2,487
484,502	-15	-2,476
495,037	-14,5	-2,38
505,579	-12,5	-2,228
516,138	-15	-2,475
526,685	-15,5	-2,561
537,233	-14	-2,355
547,762	-12	-2,164
558,286	-10	-2,035
568,815	-7,5	-1,689
579,356	-8,5	-1,82
589,886	-8	-1,665
600,427	-3	-0,887
610,975	-1,5	-0,793
621,516	3,5	0
632,057	3,5	-0,016
642,587	2,5	-0,054
653,128	1,5	-0,118
663,676	1	-0,126
674,227	2	-0,086
684,752	3,5	-0,011
695,288	3,5	-0,005
705,817	3,5	-0,012
716,347	2	-0,412
726,876	2,5	-0,487
737,405	-3,5	-1,026
747,941	-6	-1,504
758,47	-9	-1,941
769,012	-9,5	-2,006
779,529	-10,5	-2,181
790,064	-6,5	-1,655
800,6	-3,5	-1,085
811,129	0	-0,699
821,665	2	-0,495
832,194	2	-0,438
842,753	2	-0,461
853,295	1,5	-0,506
863,842	3,5	-0,299
874,377	3	-0,368
884,901	3,5	0
895,442	3,5	-0,314
905,984	-1,5	-0,898
916,525	-6	-1,56
927,06	-11	-2,282
937,596	-15	-2,653
948,137	-17,5	-2,874
958,673	-25	-3,402
969,202	-28	-3,489
979,737	-28	-3,494
990,285	-28	-3,495
1000,82	-28	-3,499
1011,386	-28	-3,499
1021,915	-28	-3,311
1032,45	-26	-3,026
1043,004	-21	-2,669
1053,611	-15	-2,118
1064,159	-18	-2,451
1074,7	-17	-2,38
1085,223	-14	-2,122
1095,765	-20	-2,598
1106,288	-19,5	-2,563
1116,812	-21	-2,74
1127,353	-16,5	-2,376
1137,882	-11,5	-1,88
1148,412	-6	-1,354
1158,959	-1	-0,55
1169,489	3	-0,074
1180,018	3,5	-0,01
1190,548	3,5	-0,002
1201,083	3,5	-0,003
1211,612	3,5	-0,001
1222,154	3,5	-0,001
1232,689	3,5	-0,002
1243,218	3,5	-0,002
1253,76	3,5	-0,002
1264,301	3,5	-0,003
1274,849	3,5	-0,003
1285,39	3,5	-0,005
1295,92	3	-0,028
1306,455	0	-0,208
1317,002	0	-0,256
1327,544	-0,5	-0,44
1338,073	-4,5	-1,098
1348,602	-9,5	-1,72
1359,132	-15,5	-2,26
1369,673	-24,5	-2,981
1380,203	-26,5	-3,498
1390,738	-26,5	-3,486
1401,273	-25,5	-3,461
1411,803	-24	-3,403
1422,344	-21,5	-3,334
1432,874	-18	-2,985
1443,421	-16,5	-2,879
1453,974	-12	-2,48
1464,529	-7,5	-2,005
1475,057	-4	-1,4
1485,593	2,5	-0,526
1496,14	2	-0,516
1506,675	3,5	-0,226
1517,229	3,5	-0,192
1527,764	4	-0,001
1538,282	3,5	-0,001
1548,811	4	-0,001
1559,352	3,5	-0,001
1569,888	3,5	-0,001
1580,423	3,5	-0,032
1590,953	3,5	0
1601,488	3,5	0
1612,017	3,5	-0,083
1622,553	2,5	-0,437
1633,07	2,5	-0,442
1643,6	3	-0,32
1654,195	3	-0,315
1664,718	2,5	-0,356
1675,254	3,5	-0,181
1685,783	3,5	-0,001
1696,307	3,5	-0,001
1706,836	3,5	-0,001
1717,359	3,5	-0,002
1727,889	4	-0,003
1738,406	3,5	-0,011
1748,936	3,5	-0,042
1759,465	3	-0,058
1769,988	3	-0,073
1780,518	2	-0,089
1791,047	1,5	-0,093
1801,577	0	-0,403
1812,1	-2,5	-0,91
1822,629	-9	-1,845
1833,159	-9,5	-1,834
1843,682	-9	-1,745
1854,206	-4,5	-1,238
1864,735	-3	-1,003
1875,264	-0,5	-0,555
1885,8	-3,5	-1,087
1896,329	-13	-2,255
1906,847	-22,5	-3,024
1917,37	-24	-3,12
1927,899	-24,5	-3,196
1938,435	-20	-2,822
1948,958	-14,5	-2,308
1959,487	-6	-1,532
1970,017	-3	-1,004
1980,546	-0,5	-0,568
1991,076	0,5	-0,187
2001,605	3	-0,054
2012,129	3,5	-0,012
2022,658	4	-0,005
2033,187	4	-0,001
2043,717	3,5	-0,272
2054,24	1	-0,574
2064,769	-1	-0,905
2075,305	0	-0,777
2085,84	-1,5	-1,03
2096,37	-5	-1,766
2106,899	-6	-2,13
2117,422	-8	-2,568
2127,946	-12,5	-3,266
2138,487	-18	-3,478
2149,023	-17	-3,497
2159,552	-16	-3,183
2170,076	-9	-2,56
2180,605	-3	-1,784
2191,128	0	-1,09
2201,658	0	-0,85
2212,187	1,5	-0,375
2222,71	3,5	-0,089
2233,234	4	-0,019
2243,757	4	-0,002
2254,335	3,5	-0,29
2264,852	-0,5	-0,966
2275,388	-1,5	-1,348
2285,923	-3	-1,821
2296,464	-5,5	-2,461
2306,988	-6	-2,714
2317,523	-8,5	-3,117
2328,052	-12	-3,402
2338,588	-14	-3,477
2349,123	-14,5	-3,492
2359,647	-14,5	-3,497
2370,194	-14	-3,499
2380,729	-14	-3,248
2391,259	-9,5	-2,872
2401,794	-5,5	-2,5
2412,318	-5	-2,36
2422,853	-3	-2,1
2433,382	-2,5	-1,971
2443,918	-1,5	-1,689
2454,459	-2	-1,869
2464,989	-0,5	-1,426
2475,53	0	-0,966
2486,059	0	-0,784
2496,595	2	-0,189
2507,13	3,5	-0,058
2517,66	3,5	-0,028
2528,189	4	-0,011
2538,706	4	-0,007
2549,236	4	-0,002
2559,771	4	0
2570,307	4	-0,197
2580,836	3,5	-0,226
2591,372	3,5	-0,328
2601,895	2,5	-0,496
2612,43	0,5	-0,757
2622,96	0	-0,843
2633,501	-0,5	-1,09
2644,042	-1	-1,332
2654,56	-1	-1,417
2665,089	-2	-1,796
2675,631	-2,5	-2,127
2686,16	-3	-2,368
2696,689	-4,5	-2,805
2707,219	-6	-3,12
2717,748	-5,5	-3,131
2728,278	-6,5	-3,19
2738,801	-6,5	-3,242
2749,324	-7,5	-3,326
2759,848	-9,5	-3,403
2770,377	-8,5	-3,402
2780,901	-7,5	-3,374
2791,43	-9	-3,415
2801,995	-10,5	-3,47
2812,525	-10,5	-3,48
2823,06	-10,5	-3,482
2833,578	-10,5	-3,49
2844,113	-10,5	-3,492
2854,702	-10,5	-3,498
2865,232	-10,5	-3,498
2875,755	-10,5	-3,498
2886,297	-10,5	-3,498
2896,826	-10,5	-3,498
2907,367	-10,5	-3,499
2917,897	-10,5	-3,5
2928,432	-10,5	-3,499
2938,968	-10,5	-3,5
2949,497	-10,5	-3,449
2960,026	-10	-3,499
2970,556	-10	-3,496
2981,085	-10	-3,5
2991,609	-10	-3,499
3002,139	-10	-3,499
3012,691	-10	-3,499
3023,209	-10	-3,499
3033,756	-10	-3,499
3044,285	-10	-3,498
3054,821	-9,5	-3,499
3065,356	-10	-3,498
3075,898	-10	-3,498
3086,439	-10	-3,497
3096,974	-10	-3,494
3107,516	-10	-3,496
3118,045	-9,5	-3,497
3128,569	-9,5	-3,498
3139,11	-9,5	-3,498
3149,633	-9,5	-3,499
3157,019	3,5	-0,001

File: _5.txt
Time (s)	Load (N)	Displacement (mm)
0	0	-0,035
10,606	1,5	-0,01
21,124	-18,5	-1,656
31,635	-35,5	-3,455
42,152	-12	-1,674
52,753	2,5	-0,012
63,271	2,5	-0,013
73,776	-16,5	-1,715
84,288	-25,5	-2,538
94,811	-29,5	-2,811
105,322	-34,5	-3,399
115,84	-34,5	-3,499
126,345	-34,5	-3,499
136,845	-34	-3,498
147,393	-34,5	-3,499
157,933	-34	-3,498
168,487	-33,5	-3,364
179,028	-33,5	-3,197
189,558	-28	-2,864
200,099	-22,5	-2,405
210,646	-21	-2,234
221,176	-19	-2,116
231,717	-19,5	-2,145
242,246	-16,5	-1,852
252,8	-18,5	-2,06
263,347	-15	-1,852
273,919	-14,5	-1,759
284,478	-11,5	-1,47
295,049	-8	-1,232
305,603	-8,5	-1,334
316,174	-7,5	-1,208
326,728	-9,5	-1,39
337,317	-8	-1,083
347,871	-12	-1,588
358,454	-12	-1,621
368,995	-10	-1,493
379,573	-10,5	-1,505
390,126	-9	-1,343
400,703	-6	-1,105
411,275	-4,5	-0,985
421,84	-1,5	-0,574
432,412	-3	-0,735
442,959	-1,5	-0,543
453,512	-0,5	-0,47
464,06	-3	-0,73
474,619	-4,5	-0,935
485,167	-4	-0,855
495,732	-3	-0,769
506,291	-3	-0,794
516,869	-3,5	-0,861
527,428	-2,5	-0,748
537,976	-2	-0,688
548,529	-0,5	-0,482
559,094	0	-0,222
569,642	1,5	-0,112
580,207	2,5	-0,083
590,761	1,5	-0,091
601,326	3,5	-0,043
611,867	3	-0,052
622,427	3,5	-0,046
632,974	2,5	-0,064
643,516	1,5	-0,108
654,117	3	-0,044
664,67	3,5	-0,036
675,218	3	-0,059
685,771	2,5	-0,062
696,331	3	-0,052
706,884	3,5	-0,024
717,419	3	-0,043
727,979	3,5	-0,04
738,526	3	-0,04
749,074	3,5	-0,025
759,615	3,5	-0,035
770,168	3	-0,042
780,716	3,5	-0,046
791,263	3	-0,041
801,793	3	-0,054
812,34	2,5	-0,07
822,893	0	-0,273
833,441	-1	-0,487
843,994	-3	-0,798
854,53	-4	-0,989
865,065	-5	-1,096
875,594	-7,5	-1,388
886,148	-8,5	-1,585
896,689	-11,5	-1,854
907,236	-15,5	-2,178
917,778	-23,5	-2,834
928,319	-28,5	-3,338
938,873	-28,5	-3,498
949,42	-28,5	-3,485
959,962	-22	-3,3
970,509	-14,5	-2,526
981,062	-14,5	-2,494
991,604	-14	-2,5
1002,157	-16	-2,639
1012,728	-13	-2,398
1023,282	-10,5	-2,157
1033,829	-11,5	-2,254
1044,383	-13	-2,408
1054,93	-10	-2,201
1065,477	-13	-2,456
1076,019	-14,5	-2,576
1086,548	-14,5	-2,626
1097,084	-17	-2,863
1107,631	-19,5	-3,013
1118,16	-18	-2,956
1128,708	-16,5	-2,862
1139,243	-13	-2,509
1149,785	-12,5	-2,475
1160,326	-12	-2,334
1170,873	-12,5	-2,43
1181,415	-10,5	-2,262
1191,962	-6	-1,747
1202,498	-6	-1,687
1213,045	-8	-1,901
1223,592	-8	-1,971
1234,134	-6	-1,714
1244,675	-4	-1,32
1255,289	-2,5	-0,962
1265,824	1	-0,547
1276,371	4	-0,059
1286,901	4	-0,002
1297,442	4	-0,004
1307,978	4	-0,015
1318,525	3,5	-0,038
1329,078	2,5	-0,111
1339,62	0,5	-0,24
1350,149	0	-0,324
1360,691	-1,5	-0,604
1371,232	-1,5	-0,669
1381,779	-2,5	-0,764
1392,339	-1,5	-0,714
1402,88	0	-0,44
1413,422	0,5	-0,242
1423,963	1,5	-0,152
1434,498	1,5	-0,144
1445,034	3	-0,092
1455,581	3	-0,07
1466,117	4	-0,03
1476,67	3,5	-0,06
1487,199	3,5	-0,028
1497,747	4	-0,018
1508,294	4	-0,02
1518,824	4	-0,021
1529,359	3,5	-0,038
1539,9	3	-0,072
1550,43	0	-0,315
1560,983	0	-0,391
1571,525	0	-0,382
1582,054	-2,5	-0,844
1592,595	-3	-0,831
1603,131	-2,5	-0,868
1613,66	-3,5	-1,039
1624,208	-5	-1,254
1634,749	-6	-1,396
1645,284	-6	-1,455
1655,838	-5,5	-1,359
1666,367	-5	-1,274
1676,909	-3,5	-1,075
1687,444	-3	-1,044
1697,985	-3	-0,994
1708,539	-2,5	-0,9
1719,08	-2,5	-0,885
1729,628	-2	-0,822
1740,157	-3	-0,98
1750,68	-4	-1,174
1761,216	-4	-1,18
1771,751	-4,5	-1,244
1782,274	-4,5	-1,215
1792,792	-4,5	-1,305
1803,333	-5,5	-1,457
1813,881	-5,5	-1,461
1824,41	-5	-1,408
1834,939	-7,5	-1,714
1845,481	-7	-1,658
1856,106	-5	-1,454
1866,642	-7	-1,641
1877,177	-7,5	-1,722
1887,724	-8	-1,87
1898,26	-12	-2,173
1908,795	-13,5	-2,329
1919,343	-10,5	-2,124
1929,89	-11,5	-2,188
1940,431	-11	-2,197
1950,973	-10,5	-2,244
1961,52	-14	-2,554
1972,062	-15	-2,701
1982,603	-14,5	-2,64
1993,144	-17,5	-2,684
2003,698	-16	-2,851
2014,227	-15,5	-2,743
2024,763	-18,5	-3,058
2035,298	-18	-2,964
2045,839	-20,5	-3,126
2056,387	-19,5	-3,105
2066,928	-19,5	-3,181
2077,476	-19	-3,202
2088,017	-17	-3,087
2098,534	-18	-3,376
2109,082	-17,5	-3,283
2119,623	-17	-3,191
2130,159	-17	-3,274
2140,7	-16,5	-3,388
2151,235	-15,5	-3,29
2161,777	-15	-3,419
2172,342	-14,5	-3,08
2182,896	-11,5	-2,905
2193,437	-8	-2,625
2203,972	-9	-2,776
2214,508	-14,5	-3,286
2225,031	-11,5	-2,991
2235,555	-9,5	-2,86
2246,078	-5,5	-2,533
2256,613	-3	-2,124
2267,137	-4	-2,424
2277,672	-3	-2,144
2288,196	-1	-1,828
2298,719	0	-1,543
2309,248	0	-1,238
2319,772	0,5	-1,038
2330,307	1,5	-0,609
2340,831	2,5	-0,202
2351,366	3,5	-0,06
2361,907	4,5	-0,012
2372,437	4,5	-0,004
2382,978	4,5	-0,001
2393,514	4,5	-0,176
2404,055	1	-0,657
2414,596	-1	-1,101
2425,132	-1,5	-1,436
2435,661	-2,5	-1,824
2446,203	-3,5	-2,354
2456,816	-6	-3,114
2467,363	-8	-3,357
2477,911	-10	-3,433
2488,446	-11	-3,479
2498,994	-11	-3,495
2509,529	-11	-3,498
2520,07	-10,5	-3,489
2530,612	-11	-3,171
2541,153	-6,5	-2,864
2551,689	-4,5	-2,647
2562,218	-2,5	-2,38
2572,753	-1,5	-2,125
2583,289	-1	-2,072
2593,818	-0,5	-1,998
2604,36	0	-1,703
2614,901	0	-1,578
2625,442	0,5	-1,208
2635,984	1	-0,859
2646,519	1,5	-0,615
2657,073	3	-0,114
2667,602	4	-0,018
2678,143	4,5	-0,007
2688,673	4,5	-0,004
2699,226	4,5	-0,001
2709,762	4,5	-0,267
2720,315	0	-0,763
2730,844	-0,5	-1,078
2741,374	-0,5	-1,307
2751,921	-0,5	-1,394
2762,451	-1,5	-1,557
2772,992	-1	-1,572
2783,539	-1,5	-1,668
2794,081	-1,5	-1,761
2804,604	-2	-2,004
2815,145	-3,5	-2,64
2825,663	-4	-2,799
2836,204	-5	-3,121
2846,74	-6,5	-3,341
2857,281	-8,5	-3,421
2867,798	-9,5	-3,457
2878,34	-10	-3,465
2888,875	-9,5	-3,461
2899,411	-9,5	-3,46
2909,946	-10	-3,48
2920,487	-10	-3,495
2931,017	-10,5	-3,499
2941,558	-5,5	-2,971
2952,106	-1	-2,104
2962,641	0	-1,514
2973,17	0	-1,22
2983,706	0,5	-0,86
2994,247	1,5	-0,442
3004,771	3	-0,133
3015,306	4	-0,015
3025,835	4	-0,003
3036,365	4	-0,002
3046,9	4	-0,001
3057,508	3	-0,389
3068,043	1	-0,767
3078,584	-0,5	-1,184
3089,102	-1	-1,518
3099,643	-1,5	-2,01
3110,179	-2	-2,274
3120,72	-2	-2,442
3131,255	-3	-2,697
3141,791	-4	-3,069
3152,326	-5	-3,279
3162,088	4	-0,001

File: _6.txt
Time (s)	Load (N)	Displacement (mm)
0	0	-0,028
10,593	1,5	0
21,141	2	-0,001
31,688	2,5	-0,001
42,242	2,5	-0,001
52,795	2,5	-0,006
63,354	1,5	-0,068
73,914	-1	-0,286
84,479	-1	-0,285
95,032	-7	-1,013
105,592	-13	-1,58
116,139	-23	-2,45
126,705	-33,5	-3,477
137,246	-33	-3,491
147,788	-20,5	-2,75
158,347	-9	-1,642
168,888	3	0
179,454	3,5	-0,012
190,007	-0,5	-0,394
200,566	-6,5	-1,104
211,126	-10,5	-1,42
221,673	-8,5	-1,324
232,239	-12	-1,622
242,798	-17,5	-1,998
253,345	-16,5	-2,081
263,899	-22,5	-2,583
274,482	-29	-2,954
285,048	-31	-3,311
295,595	-31	-3,493
306,172	-31	-3,5
316,738	-31	-3,499
327,315	-31	-3,498
337,886	-31	-3,493
348,476	-30,5	-3,488
359,041	-30,5	-3,484
369,625	-25,5	-3,354
380,208	-16,5	-2,643
390,797	-8,5	-1,768
401,381	-4,5	-1,167
411,952	0	-0,726
422,536	3,5	0
433,113	3,5	-0,012
443,69	3	-0,044
454,292	1	-0,17
464,887	0	-0,248
475,465	0	-0,291
486,048	-3,5	-0,95
496,643	-6	-1,204
507,245	-3,5	-0,885
517,828	-1	-0,593
528,394	-2,5	-0,764
538,983	-1,5	-0,584
549,578	0	-0,281
560,144	0	-0,316
570,721	-0,5	-0,378
581,317	1	-0,115
591,888	1,5	-0,155
602,465	-1,5	-0,557
613,055	-4,5	-1,095
623,632	-8,5	-1,568
634,222	-8	-1,525
644,793	-9	-1,484
655,364	-6	-1,311
665,966	-13	-1,987
676,555	-15,5	-2,19
687,121	-15	-2,234
697,704	-12	-1,914
708,275	-13,5	-2,08
718,883	-13	-2,024
729,484	-11,5	-1,897
740,074	-10,5	-1,867
750,651	-12	-1,892
761,27	-10,5	-1,774
771,854	-8,5	-1,564
782,443	-7,5	-1,442
793,02	-5	-1,116
803,628	-2	-0,758
814,223	-0,5	-0,437
824,801	0	-0,387
835,384	0	-0,264
845,979	0	-0,258
856,557	0	-0,326
867,128	0	-0,359
877,712	0,5	-0,25
888,307	2	-0,128
898,896	3	-0,064
909,474	3	-0,074
920,063	3,5	-0,063
930,653	3,5	-0,029
941,236	4	-0,012
951,819	4	-0,008
962,421	4	-0,004
973,004	4	-0,002
983,576	4	-0,002
994,165	4	-0,001
1004,754	4	-0,002
1015,338	4	-0,001
1025,915	4	-0,001
1036,505	4	-0,055
1047,082	4	-0,185
1057,671	4	-0,286
1068,261	0	-0,643
1078,838	0,5	-0,597
1089,416	1,5	-0,524
1099,999	0	-0,652
1110,582	-1	-0,806
1121,172	-2	-0,921
1131,755	-3,5	-1,15
1142,369	-5,5	-1,556
1152,958	-6	-1,68
1163,541	-7	-1,888
1174,125	-5,5	-1,559
1184,708	-5,5	-1,601
1195,297	-4,5	-1,402
1205,881	-5	-1,604
1216,464	-5,5	-1,588
1227,048	-6	-1,727
1237,625	-6,5	-1,818
1248,214	-8,5	-1,959
1258,798	-7	-1,933
1269,369	-10	-2,306
1279,953	-13	-2,624
1290,524	-17,5	-3,063
1301,101	-18	-3,07
1311,685	-19,5	-3,235
1322,268	-21,5	-3,355
1332,84	-22,5	-3,364
1343,435	-24,5	-3,44
1354,03	-24,5	-3,449
1364,614	-25,5	-3,469
1375,203	-25,5	-3,484
1385,799	-26	-3,492
1396,388	-26	-3,498
1406,971	-26	-3,5
1417,567	-23,5	-2,959
1428,15	-15,5	-2,449
1438,746	-10,5	-1,921
1449,329	-7,5	-1,694
1459,918	-6	-1,514
1470,502	-5	-1,302
1481,079	-2	-0,804
1491,663	0	-0,322
1502,252	3	-0,079
1512,829	4	-0,023
1523,413	4	-0,003
1533,996	4	-0,002
1544,574	4	-0,001
1555,163	4	-0,001
1565,74	4	-0,007
1576,324	0	-0,649
1586,895	-3	-1,174
1597,472	-5,5	-1,719
1608,074	-7,5	-2,096
1618,651	-9	-2,209
1629,223	-12,5	-2,58
1639,806	-19	-3,221
1650,389	-22,5	-3,443
1660,973	-25	-3,494
1671,55	-25,5	-3,499
1682,116	-24	-3,185
1692,681	-24	-2,928
1703,258	-14	-2,373
1713,83	-10	-1,932
1724,407	-8	-1,744
1734,973	-4,5	-1,43
1745,544	-2	-0,863
1756,121	0	-0,325
1766,705	3,5	-0,044
1777,276	4	-0,008
1787,848	4,5	-0,002
1798,431	4	-0,061
1809,014	1,5	-0,567
1819,598	-1	-0,886
1830,157	-2,5	-1,127
1840,741	-3,5	-1,494
1851,318	-4,5	-1,677
1861,895	-5	-1,827
1872,473	-6	-1,968
1883,068	-8	-2,23
1893,658	-11,5	-2,659
1904,241	-16,5	-3,073
1914,83	-18,5	-3,299
1925,42	-22	-3,417
1935,991	-23	-3,449
1946,569	-23,5	-3,473
1957,152	-24	-3,494
1967,729	-24	-3,497
1978,307	-24	-3,498
1988,878	-24	-3,499
1999,468	-24	-3,252
2010,027	-23	-3,108
2020,61	-15,5	-2,624
2031,194	-12	-2,32
2041,765	-10,5	-2,135
2052,349	-7	-1,854
2062,926	-5,5	-1,602
2073,503	-5	-1,515
2084,087	-1,5	-1,026
2094,658	-1,5	-0,979
2105,241	-0,5	-0,714
2115,837	1	-0,284
2126,42	3	-0,079
2136,992	4	-0,035
2147,569	4,5	-0,016
2158,17	4	-0,007
2168,748	4,5	-0,003
2179,325	4,5	-0,001
2189,915	4,5	-0,001
2200,492	4,5	-0,001
2211,081	4,5	-0,001
2221,659	4,5	-0,01
2232,224	4,5	0
2242,802	4,5	-0,033
2253,373	4,5	-0,329
2263,944	3,5	-0,439
2274,504	1	-0,671
2285,069	1	-0,725
2295,641	-1	-1,138
2306,206	-1,5	-1,255
2316,777	-2	-1,46
2327,355	-4	-2,017
2337,92	-5	-2,399
2348,492	-6	-2,632
2359,069	-7,5	-2,82
2369,628	-8,5	-3,003
2380,206	-9,5	-3,224
2390,777	-10	-3,274
2401,343	-10,5	-3,321
2411,92	-11,5	-3,387
2422,485	-12	-3,374
2433,069	-13,5	-3,462
2443,634	-14	-3,478
2454,212	-13,5	-3,48
2464,777	-13,5	-3,491
2475,354	-13,5	-3,496
2485,926	-13,5	-3,498
2496,491	-13,5	-3,498
2507,057	-13	-3,499
2517,628	-13	-3,499
2528,187	-13	-3,417
2538,753	-12	-3,134
2549,33	-7,5	-2,864
2559,902	-4,5	-2,563
2570,479	-2	-2,136
2581,056	0	-1,64
2591,634	0	-1,212
2602,211	1	-0,876
2612,776	1,5	-0,471
2623,354	3,5	-0,114
2633,925	4	-0,026
2644,503	4,5	-0,01
2655,074	4,5	-0,002
2665,651	4,5	-0,001
2676,235	4,5	-0,105
2686,806	4,5	-0,242
2697,378	1	-0,631
2707,955	0	-0,761
2718,538	-0,5	-1,175
2729,11	-1	-1,433
2739,681	-1,5	-1,873
2750,259	-2	-2,067
2760,848	-2,5	-2,231
2771,431	-2,5	-2,325
2782,009	-3	-2,503
2792,586	-3	-2,536
2803,17	-3	-2,557
2813,747	-3,5	-2,756
2824,33	-4,5	-3,091
2834,92	-4	-2,887
2845,491	-4	-2,971
2856,069	-7	-3,359
2866,658	-9	-3,448
2877,241	-9,5	-3,472
2887,819	-10	-3,488
2898,414	-10	-3,49
2908,986	-10	-3,481
2919,575	-10	-3,485
2930,152	-8	-3,437
2940,724	-8	-3,418
2951,301	-8	-3,416
2961,891	-6,5	-3,311
2972,468	-4,5	-3,132
2983,057	-6	-3,288
2993,641	-4	-2,891
3004,218	-2	-2,175
3014,802	-1	-1,738
3025,385	-0,5	-1,197
3035,962	0	-0,837
3046,546	4	-0,067
3057,129	4,5	-0,142
3067,725	4	-0,251
3078,314	4	-0,205
3088,885	4	-0,001
3099,475	4,5	-0,001
3110,052	4,5	-0,004
3120,635	4	-0,026
3131,213	1,5	-0,436
3141,796	0	-1,34
3152,374	-0,5	-1,891
3162,945	-1	-2,254
3170,127	4	-0,001