Folder: Data-filter--cyclical-tests-BEPE-project-/Cycling_tests/_30perc/_4gap/entrada

Note: README.md
# Data filter (cyclical tests BEPE project)
python aplication to treat data get by fatigue testing machine

File: _1.txt
Time (s)	Load (N)	Displacement (mm)
0	-0,5	-0,035
10,804	0	-0,429
21,514	0,5	-0,296
32,229	1	-0,001
42,956	1	-0,041
53,666	1	-0,131
64,399	1,5	0
75,115	1,5	-0,001
85,86	0	-0,51
96,587	-1	-0,699
107,315	-2,5	-0,935
118,06	-4,5	-1,209
128,788	-4,5	-1,306
139,525	-5	-1,438
150,29	-5,5	-1,572
161,03	-6	-1,645
171,799	-7,5	-1,889
182,562	-9	-2,071
193,321	-10,5	-2,287
204,059	-10,5	-2,393
214,823	-12,5	-2,617
225,604	-13,5	-2,725
236,379	-15	-2,908
247,149	-15	-3,074
257,894	-20	-3,404
268,651	-22	-3,471
279,445	-22	-3,484
290,202	-22	-3,486
300,96	-22,5	-3,492
311,717	-22,5	-3,497
322,492	-22	-3,499
333,268	-22	-3,499
344,031	-22	-3,499
354,789	-22	-3,432
365,558	-22	-3,498
376,333	-21,5	-3,237
387,115	-21,5	-3,208
397,89	-20,5	-3,074
408,666	-19,5	-3,047
419,435	-21	-3,191
430,222	-21,5	-3,499
440,98	-21,5	-3,5
451,755	-21,5	-3,499
462,542	-21,5	-3,499
473,312	-21	-3,499
484,081	-21,5	-3,5
494,869	-21	-3,499
505,626	-21	-3,499
516,425	-21	-3,499
527,213	-21	-3,305
537,97	-20	-3,095
548,745	-15,5	-2,747
559,533	-11,5	-2,322
570,296	-9,5	-2,082
581,084	-7	-1,74
591,865	-5	-1,517
602,646	-3,5	-1,208
613,44	-2	-0,891
624,203	-1	-0,719
634,973	-0,5	-0,593
645,736	-0,5	-0,544
656,505	0,5	-0,164
667,281	2	-0,038
678,056	2,5	-0,004
688,807	2,5	-0,001
699,571	2	-0,288
710,328	0,5	-0,532
721,122	-2,5	-1,167
731,897	-2,5	-1,181
742,654	-2,5	-1,279
753,418	-3,5	-1,51
764,163	-4,5	-1,692
774,909	-5,5	-1,966
785,66	-6	-2,088
796,423	-6,5	-2,196
807,181	-7	-2,284
817,938	-8	-2,388
828,689	-9	-2,553
839,453	-9,5	-2,661
850,222	-11	-2,804
860,974	-12,5	-2,953
871,731	-14,5	-3,249
882,488	-15	-3,341
893,24	-18,5	-3,447
903,985	-19,5	-3,478
914,743	-19,5	-3,487
925,494	-19,5	-3,494
936,269	-19,5	-3,497
947,039	-19,5	-3,497
957,79	-19,5	-3,499
968,541	-19,5	-3,466
979,293	-18	-3,089
990,062	-14,5	-2,702
1000,808	-11	-2,434
1011,577	-8,5	-2,061
1022,322	-7,5	-1,916
1033,08	-5	-1,631
1043,831	-2	-1,057
1054,582	0	-0,534
1065,328	0	-0,322
1076,079	1	-0,149
1086,837	2	-0,046
1097,594	2	-0,026
1108,345	2,5	-0,008
1119,097	2,5	-0,004
1129,848	2,5	-0,002
1140,6	2,5	-0,002
1151,357	2,5	-0,002
1162,114	2,5	-0,002
1172,86	2,5	-0,001
1183,611	3	-0,002
1194,369	2,5	-0,001
1205,126	2,5	-0,001
1215,877	2	-0,002
1226,635	2,5	-0,001
1237,392	2,5	-0,001
1248,131	3	-0,002
1258,871	2,5	-0,001
1269,628	2,5	-0,001
1280,362	2,5	-0,101
1291,107	1,5	-0,386
1301,864	0,5	-0,639
1312,616	-0,5	-0,901
1323,361	-1,5	-1,009
1334,125	-2,5	-1,334
1344,876	-3,5	-1,75
1355,621	-4,5	-2,032
1366,373	-7,5	-2,463
1377,112	-8	-2,584
1387,869	-12	-3,044
1398,627	-13,5	-3,253
1409,372	-14,5	-3,353
1420,124	-15	-3,363
1430,869	-13,5	-3,224
1441,602	-14,5	-3,32
1452,348	-14,5	-3,317
1463,099	-18	-3,486
1473,857	-18	-3,485
1484,614	-18,5	-3,493
1495,359	-18	-3,493
1506,129	-18	-3,496
1516,892	-18	-3,496
1527,644	-18	-3,496
1538,401	-18,5	-3,497
1549,158	-18,5	-3,498
1559,928	-18	-3,499
1570,691	-18,5	-3,364
1581,442	-18	-3,278
1592,188	-15,5	-3,037
1602,945	-15	-2,858
1613,703	-12	-2,631
1624,43	-12	-2,644
1635,175	-11	-2,552
1645,927	-10,5	-2,569
1656,672	-10	-2,47
1667,43	-9	-2,34
1678,175	-9,5	-2,386
1688,926	-9	-2,322
1699,672	-9	-2,314
1710,423	-8	-2,273
1721,168	-9	-2,308
1731,908	-10	-2,373
1742,653	-9	-2,254
1753,405	-5,5	-1,798
1764,156	-4	-1,504
1774,907	-3,5	-1,457
1785,671	-4	-1,487
1796,422	-4	-1,53
1807,168	-3,5	-1,432
1817,925	-2,5	-1,142
1828,67	-2	-1,05
1839,41	-1,5	-0,929
1850,161	-1	-0,795
1860,912	-0,5	-0,674
1871,664	0	-0,408
1882,415	1	-0,167
1893,143	0,5	-0,189
1903,906	1,5	-0,088
1914,663	2,5	-0,022
1925,403	2,5	-0,019
1936,154	2,5	-0,009
1946,894	2,5	-0,004
1957,657	2,5	-0,004
1968,402	2,5	-0,002
1979,148	2,5	-0,002
1989,899	3	-0,001
2000,644	3	-0,001
2011,39	2,5	-0,001
2022,135	2,5	0
2032,881	2,5	0
2043,626	3	-0,07
2054,377	3	-0,141
2065,123	3	-0,184
2075,868	2,5	-0,126
2086,632	3	-0,001
2097,395	2,5	-0,001
2108,146	2,5	-0,001
2118,892	2,5	-0,002
2129,643	3	-0,003
2140,4	3	-0,003
2151,14	3	-0,002
2161,885	3	-0,002
2172,655	3	-0,002
2183,4	3	-0,001
2194,139	2,5	-0,001
2204,891	2,5	-0,001
2215,636	3	-0,002
2226,388	3	-0,004
2237,139	2,5	-0,003
2247,89	3	-0,002
2258,624	2,5	0
2269,369	3	-0,115
2280,121	2	-0,415
2290,878	1,5	-0,556
2301,617	2,5	-0,232
2312,363	2,5	0
2323,108	3	-0,001
2333,853	3	-0,002
2344,593	3	-0,003
2355,338	3	-0,005
2366,084	2,5	-0,019
2376,835	2,5	-0,035
2387,574	2	-0,068
2398,326	2	-0,097
2409,069	1,5	-0,161
2419,817	1,5	-0,14
2430,562	1,5	-0,113
2441,307	1,5	-0,126
2452,065	0,5	-0,328
2462,81	0	-0,442
2473,567	0,5	-0,454
2484,319	0	-0,683
2495,07	0	-0,928
2505,816	-1	-1,198
2516,561	-1,5	-1,477
2527,414	-1,5	-1,483
2538,166	-3	-1,743
2548,905	-5	-2,202
2559,669	-6	-2,414
2570,408	-10,5	-2,952
2581,153	-13,5	-3,257
2591,887	-13,5	-3,5
2602,632	-13,5	-3,499
2613,389	-13,5	-3,498
2624,147	-13,5	-3,498
2634,892	-13,5	-3,497
2645,65	-13,5	-3,497
2656,395	-13	-3,493
2667,14	-13	-3,489
2677,892	-13	-3,483
2688,643	-13	-3,481
2699,4	-13	-3,472
2710,145	-12	-3,46
2720,902	-12	-3,455
2731,648	-11	-3,431
2742,387	-10,5	-3,4
2753,144	-10	-3,379
2763,902	-10	-3,407
2774,647	-8,5	-3,331
2785,387	-5,5	-2,965
2796,132	-5,5	-2,772
2806,877	-4,5	-2,586
2817,623	-3,5	-2,471
2828,362	-4	-2,603
2839,102	-4	-2,479
2849,865	-4	-2,614
2860,61	-4	-2,51
2871,362	-4,5	-2,659
2882,107	-4	-2,521
2892,847	-3,5	-2,461
2903,592	-3	-2,309
2914,337	-2,5	-2,221
2925,077	-2	-1,98
2935,822	-2	-1,912
2946,561	-2	-1,874
2957,307	-1,5	-1,907
2968,052	-1,5	-1,9
2978,792	-1,5	-1,833
2989,537	-1,5	-1,877
3000,288	-1,5	-1,978
3011,022	-1,5	-1,878
3021,761	-2	-1,978
3032,5	-1,5	-1,775
3043,246	-1,5	-1,739
3054,003	-2	-1,95
3064,749	-2	-1,994
3075,494	-2	-2,022
3086,24	-1,5	-1,96
3096,985	-1,5	-1,798
3107,736	-1,5	-1,712
3118,488	-1	-1,446
3129,233	-1	-1,262
3139,984	-0,5	-1,146
3150,718	-0,5	-1,2
3161,457	-0,5	-1,224
3172,203	-0,5	-1,278
3182,948	-1	-1,35
3193,693	-0,5	-1,311
3204,451	-1	-1,511
3215,202	-1	-1,569
3221,316	3	0

File: _2.txt
Time (s)	Load (N)	Displacement (mm)
0	-0,5	-0,031
10,581	1	-0,001
21,045	1	-0,019
31,538	-1,5	-0,338
42,008	-9	-1,467
52,495	-12,5	-1,77
62,988	-15	-2,184
73,5	-19,5	-2,496
83,981	-21	-2,831
94,469	-24	-3,175
104,962	-24	-3,216
115,461	-24,5	-3,315
125,985	-24	-3,5
136,508	-24	-3,499
147,008	-24	-3,496
157,525	-24	-3,492
168,024	-23,5	-3,468
178,536	-22	-3,414
189,09	-19	-3,316
199,625	-15	-2,956
210,154	-14,5	-2,808
220,671	-12,5	-2,611
231,189	-8,5	-2,275
241,724	-8	-2,099
252,272	-7	-1,876
262,813	-5,5	-1,608
273,342	-3	-1,168
283,896	-0,5	-0,71
294,419	2	-0,065
304,931	2	-0,006
315,472	2	-0,048
326,001	0	-0,31
336,525	-0,5	-0,531
347,048	-0,5	-0,506
357,578	-0,5	-0,495
368,125	-0,5	-0,537
378,678	-1	-0,549
389,214	-2,5	-0,926
399,755	-4	-1,158
410,297	-4,5	-1,31
420,826	-6	-1,544
431,373	-6	-1,563
441,915	-7	-1,688
452,45	-7	-1,673
462,979	-7,5	-1,764
473,521	-10	-2,062
484,038	-12,5	-2,403
494,58	-13	-2,449
505,103	-13,5	-2,445
515,644	-12	-2,336
526,174	-12,5	-2,388
536,697	-16	-2,795
547,227	-21	-3,029
557,745	-21	-3,37
568,297	-21	-3,249
578,827	-21	-3,222
589,374	-20	-3,06
599,892	-21	-2,969
610,433	-15	-2,669
620,974	-12,5	-2,473
631,498	-12	-2,375
642,021	-13	-2,474
652,545	-13,5	-2,491
663,08	-13,5	-2,456
673,609	-11,5	-2,321
684,127	-12	-2,344
694,65	-12	-2,319
705,186	-10	-2,176
715,721	-11,5	-2,336
726,25	-12,5	-2,398
736,774	-12	-2,333
747,297	-13	-2,446
757,833	-13,5	-2,532
768,368	-12,5	-2,426
778,897	-11,5	-2,362
789,421	-12,5	-2,444
799,956	-12	-2,439
810,468	-11	-2,309
820,985	-9	-2,05
831,508	-7	-1,803
842,032	-5	-1,496
852,555	-3,5	-1,314
863,079	-1,5	-0,922
873,602	-0,5	-0,541
884,125	0,5	-0,128
894,637	2	-0,058
905,172	2,5	-0,029
915,69	3	-0,015
926,207	2,5	-0,01
936,724	2,5	-0,013
947,236	2,5	-0,01
957,765	2,5	-0,012
968,289	2,5	-0,01
978,824	2,5	-0,004
989,353	3	-0,002
999,877	2,5	-0,001
1010,412	3	-0,228
1020,924	1,5	-0,472
1031,459	-0,5	-0,786
1041,976	-0,5	-0,861
1052,494	-1,5	-0,993
1063,017	-2	-1,214
1073,535	-2,5	-1,25
1084,064	-3,5	-1,55
1094,587	-5	-1,988
1105,099	-7	-2,241
1115,616	-9	-2,51
1126,14	-10,5	-2,764
1136,645	-11	-2,884
1147,144	-13	-3,171
1157,692	-17	-3,431
1168,203	-18	-3,455
1178,715	-19	-3,484
1189,226	-19,5	-3,495
1199,743	-19	-3,499
1210,267	-19	-3,173
1220,796	-14	-2,698
1231,308	-8,5	-2,1
1241,813	-6	-1,831
1252,33	-3,5	-1,4
1262,83	-1,5	-0,986
1273,347	-0,5	-0,615
1283,853	0	-0,292
1294,358	1,5	-0,065
1304,881	2,5	-0,009
1315,393	3	-0,001
1325,904	2,5	-0,259
1336,416	0	-0,736
1346,915	-1	-0,949
1357,426	-2,5	-1,296
1367,938	-4	-1,776
1378,455	-4,5	-1,988
1388,961	-6	-2,21
1399,466	-9	-2,65
1409,983	-14	-3,287
1420,495	-16,5	-3,432
1431,018	-18,5	-3,494
1441,536	-18,5	-3,499
1452,041	-18,5	-3,497
1462,546	-15	-2,878
1473,058	-9	-2,285
1483,563	-8,5	-2,214
1494,075	-5	-1,77
1504,592	-3	-1,42
1515,109	-1	-0,825
1525,627	0,5	-0,17
1536,126	2,5	-0,034
1546,626	2,5	-0,007
1557,125	2,5	-0,001
1567,642	0	-0,766
1578,154	-2,5	-1,417
1588,659	-5	-2,074
1599,171	-10,5	-2,895
1609,682	-15,5	-3,391
1620,187	-17,5	-3,468
1630,699	-18	-3,484
1641,21	-17,5	-3,475
1651,722	-17,5	-3,463
1662,209	-18	-3,485
1672,726	-18,5	-3,496
1683,232	-18	-3,499
1693,737	-18	-3,439
1704,231	-17,5	-3,138
1714,748	-16,5	-3,042
1725,259	-12,5	-2,69
1735,771	-8,5	-2,188
1746,27	-6	-1,894
1756,776	-3,5	-1,525
1767,281	-2	-1,119
1777,786	-0,5	-0,649
1788,286	0,5	-0,246
1798,803	2,5	-0,048
1809,315	2,5	-0,048
1819,82	2,5	-0,026
1830,331	3	-0,005
1840,837	2,5	-0,001
1851,336	3	0
1861,848	2,5	-0,096
1872,347	2,5	-0,229
1882,858	0	-0,643
1893,364	0	-0,748
1903,869	-1	-1,06
1914,381	-1,5	-1,29
1924,886	-3	-1,644
1935,385	-3,5	-1,777
1945,885	-3,5	-1,788
1956,402	-5,5	-2,213
1966,908	-9,5	-2,817
1977,401	-12,5	-3,186
1987,912	-15	-3,404
1998,424	-17,5	-3,481
2008,923	-17,5	-3,494
2019,429	-17,5	-3,498
2029,934	-17	-3,499
2040,439	-17	-3,202
2050,951	-12	-2,751
2061,45	-10	-2,523
2071,95	-9	-2,437
2082,461	-7,5	-2,261
2092,966	-5,5	-2,039
2103,466	-3,5	-1,598
2113,977	-1,5	-1,197
2124,477	0	-0,751
2134,988	0,5	-0,303
2145,493	2,5	-0,06
2155,993	1,5	-0,099
2166,498	1,5	-0,096
2176,998	1,5	-0,097
2187,497	2,5	-0,04
2197,996	2,5	-0,034
2208,502	3	-0,022
2219,001	3	-0,008
2229,501	3	-0,002
2239,994	3	-0,115
2250,505	0	-0,68
2261,011	-0,5	-0,985
2271,522	-1,5	-1,478
2282,04	-4	-2,147
2292,539	-5	-2,324
2303,056	-6	-2,656
2313,562	-10	-3,112
2324,067	-14	-3,418
2334,573	-15	-3,489
2345,072	-15	-3,497
2355,583	-15	-3,499
2366,101	-15	-3,289
2376,606	-13	-2,956
2387,118	-8	-2,54
2397,623	-8	-2,483
2408,134	-14	-3,196
2418,64	-8,5	-2,61
2429,151	-5,5	-2,152
2439,657	-3	-1,804
2450,156	-1	-1,271
2460,655	0	-0,613
2471,161	1	-0,211
2481,678	0	-0,731
2492,178	-1	-1,178
2502,689	0	-0,842
2513,188	0	-0,65
2523,694	0	-0,637
2534,205	0	-0,661
2544,705	0	-0,519
2555,204	0	-0,614
2565,721	0	-0,577
2576,227	1,5	-0,234
2586,732	0,5	-0,475
2597,25	0	-0,944
2607,755	-3	-1,897
2618,272	-8	-2,726
2628,784	-13	-3,5
2639,289	-12,5	-3,494
2649,789	-10,5	-3,432
2660,282	-5	-2,642
2670,775	-2,5	-2,043
2681,275	-1,5	-1,475
2691,78	-1	-1,116
2702,28	-1	-1,116
2712,797	0	-0,791
2723,308	1	-0,601
2733,814	3	-0,003
2744,325	3	-0,004
2754,831	3	-0,015
2765,336	1,5	-0,093
2775,841	1	-0,282
2786,353	0	-0,724
2796,846	-1	-1,482
2807,352	-2	-1,888
2817,857	-2,5	-2,05
2828,362	-6,5	-2,818
2838,85	-8	-3,006
2849,355	-6,5	-2,853
2859,861	-7,5	-2,924
2870,366	-6,5	-2,91
2880,877	-6	-2,786
2891,377	-5,5	-2,705
2901,876	-9,5	-3,475
2912,376	-9,5	-3,498
2922,875	-10	-3,494
2933,374	-9,5	-3,479
2943,88	-9	-3,462
2954,379	-7,5	-3,387
2964,885	-6	-3,238
2975,384	-7	-3,346
2985,895	-8	-3,41
2996,407	-9	-3,458
3006,912	-9	-3,454
3017,418	-8,5	-3,432
3027,911	-8	-3,427
3038,41	-8	-3,425
3048,916	-9	-3,457
3059,409	-8,5	-3,44
3069,915	-9	-3,469
3080,426	-9	-3,482
3090,931	-9,5	-3,491
3101,431	-9	-3,495
3111,966	-9	-3,497
3122,472	-9	-3,498
3132,983	-9	-3,499
3143,476	-9	-3,499
3148,702	2,5	-0,001