Folder: Data-filter--cyclical-tests-BEPE-project-/ensaios_Ciclicos/_40perc/_2gap/entrada

Note: README.md
# Data filter (cyclical tests BEPE project)
python aplication to treat data get by fatigue testing machine

File: _2.txt
Time (s)	Load (N)	Displacement (mm)
0	0	-0,034
10,517	1,5	-0,001
20,849	1,5	-0,028
31,205	-1,5	-0,7
41,559	-9	-1,958
51,909	-20	-3,171
62,294	-19,5	-3,496
72,661	-15	-3,21
83,024	-7,5	-2,276
93,415	-3,5	-1,397
103,776	2	-0,284
114,179	2	-0,005
124,558	1	-0,125
134,938	-2	-0,96
145,329	-6,5	-1,804
155,715	-13,5	-2,645
166,076	-18	-3,5
176,467	-18	-3,493
186,889	-17	-3,46
197,305	-11	-2,916
207,719	-4,5	-1,92
218,105	0	-0,771
228,514	2,5	-0,023
238,924	2,5	-0,003
249,339	2,5	-0,033
259,773	1	-0,134
270,164	-0,5	-0,779
280,573	-4	-1,49
290,971	-8,5	-2,206
301,386	-13,5	-2,768
311,79	-16,5	-3,498
322,175	-16,5	-3,482
332,572	-13,5	-3,364
342,964	-8,5	-2,666
353,379	-5	-2,139
363,807	-3	-1,551
374,222	0,5	-0,636
384,625	2,5	-0,002
395,041	2,5	-0,024
405,462	1	-0,176
415,854	-2,5	-1,276
426,245	-9,5	-2,304
436,648	-15	-3,148
447,058	-16	-3,499
457,455	-16	-3,487
467,847	-13,5	-3,323
478,25	-6	-2,335
488,641	-2,5	-1,567
499,033	0,5	-0,574
509,418	3	-0,002
519,816	2,5	-0,028
530,219	0	-0,574
540,599	-4,5	-1,704
550,996	-11	-2,668
561,399	-15,5	-3,5
571,785	-15	-3,491
582,176	-11,5	-3,289
592,55	-4,5	-2,133
602,929	-1	-1,124
613,314	2,5	-0,286
623,7	3	-0,003
634,091	3	-0,023
644,483	0	-0,743
654,856	-2,5	-1,484
665,235	-9	-2,52
675,609	-15	-3,496
685,994	-15	-3,494
696,386	-14	-3,431
706,777	-7,5	-2,762
717,162	-3,5	-1,968
727,548	-1	-1,027
737,945	2,5	-0,15
748,325	3	-0,008
758,71	1	-0,245
769,095	-2	-1,243
779,487	-5,5	-2,064
789,866	-12,5	-2,979
800,258	-15	-3,499
810,655	-15	-3,489
821,04	-12	-3,374
831,438	-6,5	-2,619
841,811	-2	-1,581
852,197	0,5	-0,643
862,582	2,5	-0,001
872,956	2,5	-0,054
883,329	-1	-1,073
893,708	-5,5	-2,082
904,088	-13	-2,996
914,461	-15	-3,496
924,841	-12,5	-3,372
935,208	-4,5	-2,225
945,587	-1	-1,024
955,955	2,5	-0,002
966,334	1,5	-0,16
976,708	-1,5	-1,214
987,063	-10	-2,716
997,436	-14,5	-3,496
1007,81	-12,5	-3,398
1018,183	-3,5	-2,071
1028,557	-0,5	-0,939
1038,942	3	-0,001
1049,321	3	-0,023
1059,707	0,5	-0,335
1070,098	-3	-1,566
1080,466	-10	-2,615
1090,839	-14,5	-3,5
1101,2	-14,5	-3,493
1111,574	-12,5	-3,414
1121,941	-5,5	-2,614
1132,321	-2	-1,536
1142,694	2	-0,421
1153,061	2,5	-0,004
1163,453	1,5	-0,078
1173,82	-1	-1,074
1184,176	-6	-2,165
1194,549	-9,5	-2,652
1204,911	-14	-3,466
1215,284	-14	-3,495
1225,657	-13	-3,419
1236,025	-4,5	-2,322
1246,398	-1,5	-1,24
1256,754	2,5	0
1267,121	3	-0,016
1277,494	1	-0,29
1287,85	-1	-1,105
1298,217	-4	-1,946
1308,573	-12,5	-3,026
1318,94	-14	-3,498
1329,313	-13,5	-3,473
1339,675	-7,5	-2,805
1350,042	-2,5	-1,694
1360,398	0	-0,755
1370,765	2,5	-0,001
1381,133	2,5	-0,035
1391,5	0	-0,84
1401,873	-6,5	-2,341
1412,235	-14	-3,498
1422,614	-7,5	-2,921
1432,976	-2,5	-1,71
1443,355	2	-0,385
1453,716	3	-0,008
1464,078	0	-0,443
1474,433	-3,5	-1,844
1484,801	-11,5	-2,994
1495,186	-14	-3,497
1505,541	-10,5	-3,292
1515,897	-3	-1,948
1526,264	0	-0,671
1536,62	3	-0,005
1546,987	0,5	-0,334
1557,348	-2,5	-1,481
1567,71	-9,5	-2,697
1578,077	-13,5	-3,499
1588,451	-13,5	-3,478
1598,818	-7	-2,857
1609,185	-2,5	-1,82
1619,559	0,5	-0,668
1629,926	3	-0,003
1640,294	1,5	-0,114
1650,661	-1	-1,165
1661,01	-8,5	-2,649
1671,384	-13,5	-3,498
1681,739	-12	-3,422
1692,101	-4,5	-2,396
1702,468	-0,5	-0,948
1712,824	3	-0,002
1723,197	1,5	-0,15
1733,558	-2	-1,488
1780,068	-2,5	-1,709
1790,435	-9,5	-2,714
1800,796	-13,5	-3,499
1811,17	-13	-3,475
1821,525	-6,5	-2,83
1831,875	-1,5	-1,503
1842,248	3	-0,256
1852,61	3	-0,008
1862,971	0,5	-0,354
1873,332	-2	-1,515
1883,706	-9,5	-2,758
1894,079	-13,5	-3,499
1904,447	-13,5	-3,487
1914,808	-7,5	-3,022
1925,163	-2,5	-1,823
1935,537	-0,5	-0,98
1945,898	3	-0,027
1956,254	3	-0,011
1966,627	1,5	-0,221
1976,988	-2	-1,535
1987,356	-7	-2,524
1997,717	-13	-3,499
2008,073	-13	-3,478
2018,428	-6	-2,68
2028,795	-1,5	-1,361
2039,157	3	0
2049,512	2,5	-0,068
2059,886	-0,5	-1,129
2070,253	-6	-2,225
2080,62	-13,5	-3,476
2090,982	-12,5	-3,478
2101,337	-5	-2,641
2111,699	-1,5	-1,578
2122,06	1	-0,671
2132,428	3	-0,001
2142,789	2,5	-0,031
2153,144	-0,5	-0,993
2163,5	-5	-2,277
2173,861	-13	-3,499
2184,229	-12,5	-3,481
2194,59	-6	-2,89
2204,945	-1,5	-1,404
2215,307	3	-0,205
2225,674	3	-0,011
2236,036	1,5	-0,235
2246,403	-1	-1,282
2256,764	-6	-2,307
2267,132	-13	-3,5
2277,487	-12,5	-3,49
2287,843	-8,5	-3,217
2298,198	-3	-2,185
2308,553	-0,5	-0,853
2318,897	3	-0,004
2329,258	1	-0,186
2339,614	-2	-1,583
2349,969	-12,5	-3,28
2360,337	-12	-3,481
2370,692	-4,5	-2,47
2381,065	-1	-1,229
2391,427	3	-0,019
2401,788	2,5	-0,062
2412,15	-2	-1,647
2422,517	-11,5	-3,106
2432,878	-12	-3,493
2443,24	-4,5	-2,573
2453,595	1,5	-0,518
2463,951	2,5	-0,029
2474,306	0	-0,908
2484,667	-9	-2,831
2495,035	-12	-3,497
2505,39	-6,5	-3,006
2515,746	-1	-1,27
2526,113	3	-0,001
2536,474	2,5	-0,04
2546,836	0	-0,858
2557,209	-5,5	-2,434
2567,571	-12	-3,499
2577,932	-10,5	-3,444
2588,305	-3	-2,332
2598,667	0	-0,946
2609,028	2,5	-0,001
2619,39	2,5	-0,047
2629,757	0	-0,677
2640,124	-3,5	-1,97
2650,486	-12	-3,281
2660,853	-12	-3,48
2671,209	-5	-2,72
2681,57	-0,5	-0,992
2691,932	3	-0,001
2702,281	2	-0,069
2712,63	-1	-1,434
2722,986	-9,5	-2,952
2733,341	-10,5	-3,446
2743,691	-1,5	-1,599
2754,046	2,5	-0,006
2764,407	-0,5	-1,099
2774,763	-9	-2,921
2785,112	-11,5	-3,495
2795,474	-4	-2,635
2805,829	0	-0,952
2816,19	3	-0,008
2826,546	-0,5	-1,158
2836,901	-11	-3,5
2847,269	-9	-3,364
2857,624	-1	-1,456
2867,985	3	-0,001
2878,347	2,5	-0,063
2888,708	0	-0,946
2899,064	-5	-2,405
2909,419	-11	-3,499
2919,781	-10	-3,427
2930,13	-3	-2,295
2940,491	-0,5	-1,148
2950,847	2,5	-0,341
2961,208	3	-0,004
2971,564	1	-0,248
2981,919	-2,5	-1,896
2992,28	-10	-3,141
3002,636	-10,5	-3,492
3012,997	-4	-2,588
3023,365	0	-0,8
3033,72	3	-0,014
3044,099	1	-0,499
3054,455	-2,5	-2,119
3064,81	-9,5	-3,499
3075,16	-7	-3,379
3121,669	-1	-1,834
3132,03	3	-0,237
3142,392	2,5	-0,035
3152,747	0	-1,204
3163,109	-3,5	-2,496
3173,458	-8	-3,475
3182,901	3	-0,001

File: _3.txt
Time (s)	Load (N)	Displacement (mm)
36,309	-15	-3,067
42,009	1,5	-0,037
47,702	-5,5	-1,259
53,42	-22	-3,497
59,138	-7,5	-1,865
64,861	1,5	-0,019
70,591	-15	-2,448
76,315	-16,5	-3,269
82,05	1,5	-0,339
87,786	-3	-0,904
93,51	-21	-3,498
99,227	-6,5	-1,948
104,963	2	-0,007
110,693	-11,5	-2,113
116,422	-19	-3,436
122,158	-0,5	-0,777
127,888	-0,5	-0,368
133,605	-20	-3,499
139,353	-8	-2,264
217,769	-19,5	-3,499
223,516	-6,5	-2,114
229,252	2,5	-0,004
235	-8	-1,894
240,735	-18,5	-3,474
246,471	-1,5	-0,98
252,201	0	-0,236
257,942	-19	-3,284
263,666	-8,5	-2,444
269,402	2,5	-0,002
275,143	-7	-1,893
280,879	-18	-3,463
286,627	-1,5	-0,903
401,298	-12,5	-2,655
407,034	-13,5	-3,166
412,775	2	-0,267
418,505	-1,5	-0,93
424,241	-18	-3,498
429,988	-4	-1,85
435,718	2,5	-0,01
441,442	-8,5	-2,192
447,184	-15,5	-3,421
452,913	0,5	-0,538
458,649	-0,5	-0,625
464,378	-18	-3,497
470,096	-7,5	-2,372
475,826	2,5	-0,003
481,543	-5,5	-1,724
487,273	-17,5	-3,481
493,015	-2,5	-1,233
498,745	1,5	-0,073
504,474	-12,5	-2,683
691,448	-17	-3,5
697,177	-6	-2,252
702,895	3	-0,005
708,619	-5	-1,79
714,342	-16,5	-3,48
720,072	-2	-1,222
725,802	2	-0,068
731,525	-12	-2,712
737,255	-10,5	-3,009
742,973	2,5	-0,053
748,696	-2	-0,99
754,42	-16,5	-3,498
760,138	-4,5	-1,94
765,861	3	-0,005
771,585	-5	-1,801
777,304	-16	-3,481
783,02	-1,5	-1,111
788,75	1,5	-0,163
794,48	-16,5	-3,244
981,273	-14,5	-3,44
986,997	-0,5	-0,747
992,72	0,5	-0,328
998,432	-16	-3,408
1004,162	-6,5	-2,556
1009,879	2,5	-0,003
1015,603	-4	-1,689
1021,321	-15,5	-3,469
1027,038	-1	-0,871
1032,768	0,5	-0,285
1038,486	-16	-3,246
1044,197	-6,5	-2,437
1049,933	3	-0,003
1055,651	-6	-1,96
1061,386	-15	-3,455
1067,104	1	-0,6
1072,822	0	-0,643
1078,533	-15,5	-3,499
1084,257	-4	-1,955
1089,981	2,5	-0,023
1095,686	-13,5	-2,887
1101,41	-7	-2,62
1107,122	2,5	-0,003
1112,845	-6,5	-2,102
1118,569	-14,5	-3,416
1124,293	1	-0,56
1130,004	-1	-0,78
1135,728	-15,5	-3,498
1141,452	-3	-1,651
1147,164	2	-0,076
1152,887	-14,5	-3,079
1158,623	-6,5	-2,605
1164,334	2,5	-0,004
1170,052	-6	-2,04
1175,776	-14	-3,423
1181,5	1	-0,565
1187,229	0	-0,57
1192,947	-15	-3,466
1198,671	-6	-2,42
1204,382	3	-0,002
1210,088	-4	-1,705
1215,812	-15	-3,488
1221,541	-2	-1,396
1227,259	1,5	-0,069
1269,167	-1	-1,084
1274,884	-15,5	-3,497
1280,608	-3,5	-1,821
1286,326	3	-0,013
1292,049	-6,5	-2,174
1297,773	-14,5	-3,443
1303,491	0,5	-0,677
1345,392	3	-0,164
1351,098	-1	-1,004
1356,815	-15	-3,498
1362,533	-4,5	-2,093
1368,257	3	-0,004
1373,98	-3,5	-1,701
1379,698	-15	-3,486
1385,41	-2,5	-1,467
1391,121	2,5	-0,031
1396,833	-7,5	-2,384
1402,551	-14	-3,407
1408,263	0	-0,741
1413,986	0	-0,322
1419,704	-14,5	-3,12
1425,422	-7,5	-2,738
1431,145	3	-0,001
1436,863	-1	-1,028
1442,575	-15	-3,498
1448,286	-4	-2,021
1454,004	3	-0,005
1459,716	-3,5	-1,705
1465,433	-15	-3,484
1471,151	-1,5	-1,222
1476,863	2	-0,07
1482,574	-9	-2,602
1488,292	-10,5	-3,199
1494,004	2	-0,348
1499,715	0	-0,78
1505,433	-15	-3,499
1511,151	-4,5	-2,175
1516,868	2,5	-0,004
1522,58	-4	-1,695
1528,298	-15	-3,488
1534,015	-2,5	-1,418
1539,739	2,5	-0,039
1545,451	-8,5	-2,48
1551,174	-11	-3,329
1556,892	1,5	-0,51
1562,61	0	-0,45
1568,321	-15	-3,244
1574,033	-7	-2,795
1579,757	3	-0,005
1585,474	-1	-0,988
1591,192	-15	-3,498
1596,904	-3	-1,782
1602,616	2,5	-0,024
1608,321	-8,5	-2,513
1614,039	-11,5	-3,32
1619,75	2,5	-0,248
1625,474	-1,5	-1,057
1631,192	-15	-3,496
1636,909	-2,5	-1,626
1642,615	1,5	-0,087
1648,333	-14	-2,996
1654,044	-6	-2,625
1659,768	2,5	-0,001
1665,48	-3	-1,597
1671,198	-15	-3,489
1676,927	-2,5	-1,502
1682,639	2	-0,021
1688,357	-5,5	-2,132
1694,068	-13,5	-3,442
1699,78	-1	-0,952
1705,486	0,5	-0,211
1711,203	-13	-2,968
1716,933	-8,5	-2,983
1722,645	2,5	-0,119
1728,356	-1	-1,026
1734,062	-15	-3,496
1739,768	-2,5	-1,652
1745,485	2,5	-0,02
1751,197	-7,5	-2,375
1756,915	-13	-3,403
1762,626	0,5	-0,655
1768,344	0,5	-0,321
1774,062	-13,5	-3,031
1779,773	-7	-2,708
1785,491	3	0
1791,215	-1	-1,015
1796,926	-15	-3,498
1802,638	-3,5	-2,098
1808,368	2,5	-0,003
1814,085	-2	-1,432
1819,809	-14,5	-3,493
1825,515	-2	-1,571
1831,226	3	-0,018
1836,956	-6	-2,259
1842,662	-12	-3,384
1848,379	0	-0,627
1854,103	0,5	-0,364
1859,815	-15	-3,227
1865,538	-6	-2,626
1871,25	2,5	-0,001
1876,956	-2,5	-1,483
1882,673	-15	-3,49
1888,391	-2	-1,508
1894,097	2,5	-0,039
1899,823	-7	-2,371
1905,532	-12	-3,377
1911,238	0,5	-0,668
1916,95	0	-0,334
1922,661	-14	-3,191
1928,361	-6	-2,527
1934,079	3	-0,001
1939,796	-2	-1,29
1945,52	-15	-3,496
1951,238	-3	-1,688
1993,133	-3,5	-2,029
1998,839	3	-0,007
2004,556	-4,5	-1,88
2010,268	-14	-3,47
2015,986	-0,5	-1,027
2021,709	1,5	-0,152
2027,427	-12	-2,925
2105,507	-1	-1,164
2111,212	-14,5	-3,495
2116,948	-2,5	-1,702
2122,66	3	-0,014
2128,371	-6,5	-2,318
2134,101	-12,5	-3,427
2139,807	0	-0,779
2145,524	1	-0,213
2151,254	-12	-2,936
2156,966	-7,5	-2,892
2162,677	3	0
2168,389	-1,5	-1,165
2174,107	-14,5	-3,497
2179,819	-2,5	-1,79
2185,536	3	-0,013
2191,242	-6	-2,268
2196,959	-11,5	-3,4
2202,671	1	-0,571
2208,395	0	-0,444
2214,101	-14	-3,264
2219,818	-5,5	-2,598
2225,542	3	-0,001
2231,254	-2	-1,4
2236,971	-14,5	-3,494
2242,695	-2	-1,6
2248,413	2,5	-0,026
2254,124	-8	-2,572
2259,842	-7,5	-2,994
2265,548	2,5	0
2271,259	-2,5	-1,386
2276,971	-14,5	-3,492
2282,683	-1,5	-1,369
2288,388	2	-0,063
2294,112	-11	-2,845
2299,818	-6,5	-2,778
2305,529	3	-0,003
2311,235	-4	-2,013
2316,959	-12	-3,406
2322,67	3	-0,119
2328,388	-2	-1,359
2334,106	-13,5	-3,48
2339,817	0	-0,635
2345,523	-0,5	-0,886
2351,241	-13,5	-3,496
2501,556	-12,5	-3,495
2507,268	-2	-1,546
2512,973	2	-0,074
2518,679	-9,5	-2,878
2524,391	-5,5	-2,735
2530,102	3	-0,003
2571,95	-1,5	-1,272
2577,656	-12	-3,487
2583,368	0	-0,842
2589,073	0	-0,635
2594,785	-12,5	-3,498
2600,496	-1	-1,226
2606,202	0	-0,703
2720,31	-5	-2,773
2726,027	3	-0,002
2731,739	-4,5	-2,207
2737,445	-6,5	-3,046
2743,15	3	-0,002
2748,856	-4	-2,174
3151,997	-7,5	-3,481
3157,709	-0,5	-1,198
3159,539	2,5	-0,001