Folder: Data-filter--cyclical-tests-BEPE-project-/ensaios_Ciclicos/_40perc/_4gap/entrada

Note: README.md
# Data filter (cyclical tests BEPE project)
python aplication to treat data get by fatigue testing machine

File: _1.txt
Time (s)	Load (N)	Displacement (mm)
36,225	1	-0,001
46,071	-14	-2,324
55,898	-9	-2,246
65,725	0	-0,238
75,595	-21	-3,499
85,43	-3	-1,051
95,286	-3	-0,976
105,149	-20	-3,477
115,007	1,5	-0,001
124,846	-18,5	-3,005
134,703	-4,5	-1,502
144,579	-5	-1,403
154,46	-15	-3,227
164,36	1,5	-0,019
174,247	-19,5	-3,499
220,349	2	-0,011
230,224	-19	-3,5
240,1	-2,5	-1,114
249,975	-5	-1,514
259,826	-10,5	-2,761
269,732	1	-0,108
279,619	-18,5	-3,497
289,507	1,5	-0,357
299,388	-12	-2,49
309,269	-6	-2,01
319,163	-1,5	-0,774
329,044	-17	-3,449
338,926	2	-0,004
348,801	-18	-3,5
358,671	-2	-0,996
404,856	-17,5	-3,206
414,755	-1,5	-1,098
424,643	-5	-1,73
434,518	-10,5	-2,893
444,418	1,5	-0,048
454,317	-17	-3,496
464,217	1,5	-0,346
474,098	-9	-2,347
483,998	-6	-2,104
493,891	-1	-0,678
503,778	-16	-3,458
513,666	2	-0,004
523,547	-16,5	-3,5
533,429	0	-0,799
543,31	-6,5	-1,911
553,18	-8,5	-2,682
563,067	1,5	-0,044
572,96	-17	-3,498
582,866	0	-0,687
592,747	-4	-1,522
602,635	-15	-3,42
612,516	2	-0,006
658,642	-10,5	-3,044
668,511	1,5	-0,08
678,392	-16,5	-3,496
688,286	2	-0,001
698,179	-16	-3,498
708,061	0	-0,749
717,942	-8,5	-2,206
727,824	-5,5	-2,208
737,705	1	-0,161
747,598	-16	-3,497
757,462	2	-0,009
767,337	-7,5	-2,095
777,213	-9	-2,788
787,082	2	-0,023
796,958	-15,5	-3,414
806,839	-3	-1,472
816,721	0	-0,541
826,602	-15,5	-3,49
836,471	2	-0,252
846,347	-6	-2,001
856,216	-9	-2,783
866,08	2,5	-0,028
875,949	-16	-3,5
885,813	-2	-1,281
895,682	-1	-0,91
905,569	-15	-3,473
915,445	2	-0,07
925,32	-6,5	-2,078
935,19	-7,5	-2,538
945,059	1,5	-0,054
954,935	-15,5	-3,499
964,798	-1,5	-0,936
974,673	-1,5	-1,086
984,549	-15	-3,481
994,412	2	-0,015
1004,282	-7,5	-2,174
1014,175	-7	-2,624
1024,045	1,5	-0,086
1033,908	-15	-3,496
1043,772	2	-0,245
1053,635	-6,5	-2,067
1063,486	-7,5	-2,627
1073,35	1	-0,106
1083,225	-15,5	-3,496
1093,089	2,5	-0,197
1102,964	-6,5	-2,202
1112,822	-5	-2,251
1122,679	0,5	-0,23
1168,702	-7	-2,626
1178,566	1,5	-0,078
1188,423	-15	-3,498
1198,299	0	-0,612
1208,162	-5,5	-2,001
1218,026	-6	-2,561
1227,883	1,5	-0,053
1237,758	-15	-3,497
1247,622	1,5	-0,501
1257,491	-5	-1,944
1267,373	-8,5	-2,878
1277,236	2,5	-0,02
1287,1	-15	-3,5
1296,963	-1	-1,165
1306,845	-2	-1,205
1316,72	-10,5	-3,246
1326,577	2,5	-0,014
1336,441	-15	-3,499
1346,292	-0,5	-0,757
1356,162	-3,5	-1,603
1366,025	-9	-2,942
1375,895	2	-0,035
1385,758	-15	-3,498
1395,621	0,5	-0,516
1405,503	-4,5	-1,87
1415,372	-6,5	-2,634
1425,248	2	-0,047
1435,111	-15	-3,499
1444,969	0	-0,726
1454,826	-3,5	-1,705
1464,671	-8	-2,858
1474,541	2,5	-0,03
1484,386	-15	-3,498
1494,256	0,5	-0,598
1504,113	-4,5	-1,833
1513,977	-9	-3,023
1523,846	2,5	-0,008
1533,698	-14,5	-3,17
1543,561	-2	-1,496
1553,418	-0,5	-0,881
1563,282	-13,5	-3,44
1573,139	2,5	-0,002
1582,997	-13,5	-3,012
1592,842	-3	-1,76
1602,706	-0,5	-0,743
1612,569	-14	-3,465
1622,432	2,5	-0,001
1632,302	-10	-2,671
1642,171	-4	-2,087
1652,023	0	-0,39
1661,892	-14,5	-3,49
1671,756	2	-0,001
1681,625	-7,5	-2,426
1691,483	-4	-2,052
1701,34	0	-0,442
1711,203	-14,5	-3,484
1721,073	2,5	-0,001
1730,936	-8,5	-2,546
1740,788	-3	-1,835
1750,645	-0,5	-0,819
1760,503	-12,5	-3,407
1770,36	2,5	-0,004
1816,395	-14,5	-3,494
1826,241	2	-0,269
1836,104	-5	-2,027
1845,968	-7	-2,792
1855,819	2,5	-0,019
1865,671	-14,5	-3,499
1875,546	-0,5	-0,894
1885,409	-2	-1,41
1895,267	-10	-3,249
1905,124	2,5	-0,003
1914,982	-7,5	-2,439
1924,839	-6	-2,573
1934,697	2,5	-0,013
1944,548	-13,5	-3,169
1954,405	-3,5	-1,941
1964,263	1	-0,151
1974,15	-14,5	-3,498
1984,02	-1	-1,091
1993,877	-1	-1,044
2003,747	-14	-3,481
2013,61	2	-0,058
2023,468	-4,5	-1,929
2033,331	-8,5	-3,087
2043,188	2,5	-0,007
2053,058	-12,5	-2,973
2062,915	-3	-2,013
2072,767	1	-0,184
2082,624	-14	-3,498
2092,47	0,5	-0,645
2102,333	-3,5	-1,692
2112,202	-9	-3,214
2122,06	2,5	-0,006
2131,911	-12,5	-2,989
2141,781	-3	-1,93
2151,644	0,5	-0,268
2161,502	-13,5	-3,495
2171,371	1,5	-0,39
2181,223	-5	-2,113
2191,086	-6,5	-2,862
2200,949	2,5	-0,018
2210,813	-13	-3,197
2220,676	-2,5	-1,719
2230,54	0	-0,511
2240,391	-13,5	-3,494
2250,255	0,5	-0,584
2260,118	-3,5	-1,824
2269,975	-6,5	-2,795
2279,833	2	-0,032
2289,684	-13,5	-3,498
2299,536	-1	-0,975
2309,405	-1	-1,131
2319,269	-12	-3,43
2329,132	2	-0,002
2339,001	-7,5	-2,575
2348,859	-3,5	-2,218
2394,852	-1	-1,171
2404,716	-11	-3,415
2414,567	2,5	-0,003
2424,431	-9,5	-2,817
2434,276	-3	-1,986
2444,127	0,5	-0,343
2453,991	-12	-3,489
2463,842	2,5	-0,238
2473,694	-4	-2,14
2483,551	-5	-2,553
2493,403	2	-0,067
2503,266	-12	-3,498
2513,124	2	-0,504
2522,975	-3,5	-1,978
2532,826	-5,5	-2,856
2542,684	2,5	-0,026
2552,535	-12	-3,499
2562,393	-0,5	-0,936
2572,25	-1,5	-1,431
2582,102	-6,5	-3,156
2591,959	2,5	-0,012
2601,816	-11	-3,389
2611,674	-1,5	-1,358
2621,531	-0,5	-1,238
2631,395	-9	-3,397
2641,252	2,5	-0,003
2651,11	-10	-3,086
2660,967	-1,5	-1,591
2670,825	0	-0,868
2680,682	-10,5	-3,466
2690,539	2,5	-0,001
2700,403	-5	-2,454
2710,26	-3	-2,116
2720,118	1,5	-0,248
2729,969	-10,5	-3,497
2739,827	2,5	-0,316
2749,684	-2,5	-2,05
2759,535	-4	-2,619
2769,393	1,5	-0,113
2779,238	-9	-3,494
2789,096	2,5	-0,185
2798,941	-4,5	-2,496
2808,793	-2,5	-2,102
2818,638	1	-0,389
2828,478	-9	-3,484
2838,347	2,5	-0,002
2848,192	-3	-2,426
2858,056	-2,5	-2,153
2867,919	1	-0,246
2877,771	-7,5	-3,491
2887,64	1,5	-0,493
2897,492	-0,5	-1,516
2907,355	-5,5	-3,29
2917,206	3	-0,006
2927,064	-6	-3,081
2936,909	-1,5	-1,728
2946,779	0,5	-0,67
2956,636	-7,5	-3,477
2966,488	2,5	0
2976,345	-2,5	-2,36
2986,203	-2	-2,215
2996,048	1,5	-0,16
3005,905	-7,5	-3,496
3015,757	1	-0,672
3025,608	-1	-1,768
3035,478	-5	-3,232
3045,329	2,5	-0,007
3055,181	-7,5	-3,202
3065,032	-1	-1,596
3074,889	0	-0,67
3084,741	-7,5	-3,476
3094,616	2,5	-0,058
3104,474	-2	-2,26
3114,343	-2,5	-2,502
3124,207	1,5	-0,101
3134,058	-7	-3,496
3143,922	2,5	-0,203
3153,779	-2,5	-2,378
3163,636	-1,5	-2,118
3173,494	0,5	-0,37
3183,351	-7	-3,485
3193,209	2,5	-0,001
3203,066	-4,5	-2,899
3212,582	2,5	0

File: _2.txt
Time (s)	Load (N)	Displacement (mm)
0	0	-0,036
10,067	-7,5	-1,298
20,02	-22,5	-3,466
29,937	1,5	0
39,873	-13,5	-2,139
49,814	-14	-2,754
59,774	1,5	-0,016
69,757	-16,5	-2,698
79,711	-9,5	-2,374
89,676	1,5	-0,042
99,635	-20,5	-3,499
109,625	-3,5	-1,158
119,578	-4	-1,123
129,544	-19,5	-3,446
139,497	2	-0,002
185,676	-19,5	-3,499
195,642	-2	-1,028
205,631	-1,5	-0,828
215,633	-19,5	-3,495
225,622	-1,5	-0,992
235,581	-3	-1,07
245,559	-19	-3,482
255,566	1,5	-0,377
265,562	-4	-1,399
275,551	-17	-3,428
285,547	2,5	0
295,524	-8,5	-2,083
305,513	-10,5	-2,806
315,497	2	-0,012
325,486	-18,5	-3,293
335,482	-4,5	-1,616
345,447	-3,5	-1,268
355,455	-16,5	-3,428
365,432	2	-0,002
375,415	-16	-2,976
385,399	-4,5	-1,752
395,382	-0,5	-0,554
405,372	-18	-3,489
415,343	2,5	0
425,327	-10,5	-2,32
435,31	-9	-2,624
445,294	2	-0,046
455,265	-18	-3,499
465,236	-1,5	-0,915
475,214	-4	-1,495
485,191	-11,5	-3,025
495,163	2,5	-0,023
505,158	-18	-3,499
515,142	0	-0,784
525,119	-5,5	-1,74
535,096	-10,5	-2,889
545,068	2	-0,036
555,045	-17,5	-3,499
565,017	-0,5	-0,83
574,994	-4	-1,461
621,209	2	-0,351
631,175	-9,5	-2,282
641,146	-7,5	-2,437
651,118	2	-0,061
661,089	-17,5	-3,499
671,061	-0,5	-0,817
681,038	-4,5	-1,667
691,003	-10	-2,87
700,981	2	-0,026
710,952	-17	-3,499
720,918	-1	-0,797
730,883	-3,5	-1,461
740,861	-14,5	-3,356
750,82	2,5	-0,003
760,786	-14,5	-2,955
770,757	-4,5	-1,899
780,704	-0,5	-0,63
790,67	-17	-3,488
800,635	2,5	0
810,625	-11	-2,511
820,602	-7	-2,526
830,567	2	-0,035
840,545	-16,5	-3,499
850,51	-0,5	-0,832
860,476	-4	-1,54
870,453	-12,5	-3,318
880,419	2,5	-0,002
890,402	-13,5	-2,911
900,368	-5	-2,076
910,339	0	-0,27
920,316	-16	-3,496
930,282	2,5	-0,147
940,247	-8	-2,22
1022,622	0,5	-0,284
1032,594	-16	-3,495
1042,565	1,5	-0,479
1052,539	-4,5	-1,728
1062,502	-10	-3,021
1072,462	2,5	-0,008
1082,415	-15	-3,189
1092,369	-3	-1,709
1102,334	0	-0,505
1112,294	-16	-3,491
1122,253	2,5	-0,194
1132,224	-5,5	-1,938
1142,19	-10	-3,05
1152,161	2,5	-0,006
1162,139	-13,5	-2,942
1172,104	-4	-1,94
1182,069	0	-0,503
1192,035	-15,5	-3,49
1202,018	2,5	-0,181
1211,984	-5,5	-1,989
1221,955	-10,5	-3,049
1231,915	2,5	-0,013
1241,874	-15,5	-3,499
1251,845	-1,5	-1
1261,817	-2	-1,249
1271,788	-14,5	-3,436
1281,754	2,5	-0,002
1291,707	-13,5	-2,915
1301,661	-3	-1,742
1311,62	-0,5	-0,698
1321,573	-15	-3,473
1331,533	2,5	-0,001
1341,486	-11	-2,638
1351,464	-4,5	-2,063
1361,425	0,5	-0,294
1371,389	-15	-3,486
1381,342	2,5	-0,001
1391,307	-11,5	-2,69
1401,273	-3,5	-1,892
1411,226	-0,5	-0,759
1421,198	-14	-3,425
1431,169	2,5	-0,009
1441,129	-15	-3,499
1451,082	1,5	-0,425
1461,035	-8,5	-2,386
1470,989	-3	-1,642
1480,942	-2	-1,179
1490,908	-10,5	-3,181
1500,861	2,5	-0,038
1510,821	-15	-3,497
1520,786	2,5	-0,138
1530,751	-8,5	-2,408
1540,706	-4,5	-2,201
1550,676	0,5	-0,298
1560,648	-15	-3,492
1570,607	3	-0,004
1580,567	-9	-2,49
1590,532	-4,5	-2,202
1600,486	1	-0,186
1610,427	-15	-3,498
1620,38	0	-0,713
1630,34	-2,5	-1,543
1640,293	-10,5	-3,173
1650,259	3	-0,004
1660,218	-14	-3,141
1670,177	-2,5	-1,483
1680,143	0	-0,7
1690,096	-15	-3,493
1700,05	3	-0,173
1710,009	-5,5	-2,162
1719,963	-6	-2,595
1729,928	2	-0,05
1739,882	-15	-3,499
1749,841	0	-0,833
1759,788	-2,5	-1,488
1769,73	-8	-2,891
1779,677	2,5	-0,021
1789,631	-15	-3,499
1799,566	-1,5	-1,252
1809,514	-1	-0,904
1819,467	-14,5	-3,479
1829,42	2,5	-0,001
1839,368	-9,5	-2,627
1849,321	-4,5	-2,232
1859,269	2	-0,064
1869,222	-14,5	-3,499
1879,17	-1,5	-1,366
1889,123	0	-0,45
1899,076	-14,5	-3,494
1909,024	1	-0,546
1918,965	-4	-1,852
1928,949	-10	-3,233
1938,896	3	-0,003
1948,844	-9,5	-2,636
1958,791	-5	-2,422
1968,75	2	-0,031
1978,698	-14,5	-3,5
1988,651	-2,5	-1,546
1998,605	-0,5	-0,75
2008,552	-14	-3,483
2018,5	3	-0,052
2028,453	-4,5	-1,993
2038,4	-7	-2,804
2048,354	2,5	-0,02
2058,301	-13,5	-3,5
2068,255	-1,5	-1,239
2078,202	-1	-1,119
2088,156	-13,5	-3,466
2098,109	2,5	-0,001
2144,198	-13	-3,488
2154,152	3	-0,002
2164,105	-4	-2,084
2174,047	-6	-2,731
2184	3	-0,015
2193,954	-13	-3,489
2203,901	-1,5	-1,395
2213,854	0	-0,752
2223,802	-12,5	-3,474
2233,749	3	0
2243,697	-6	-2,396
2253,644	-4	-2,294
2263,592	1	-0,145
2273,545	-12,5	-3,496
2283,492	2,5	-0,353
2293,44	-5	-2,222
2303,393	-5	-2,604
2313,347	1,5	-0,053
2323,294	-12,5	-3,499
2333,248	-0,5	-0,984
2343,201	-1,5	-1,446
2353,148	-8,5	-3,221
2363,084	3	-0,012
2373,031	-12	-3,5
2382,979	-1	-1,13
2392,92	-1	-1,233
2402,862	-10	-3,403
2412,815	3	-0,003
2422,769	-9,5	-2,916
2432,704	-2,5	-1,784
2442,663	0	-0,578
2452,611	-11,5	-3,472
2462,552	3	-0,001
2472,506	-6,5	-2,559
2482,459	-2,5	-1,758
2492,406	0	-1,014
2502,36	-10,5	-3,391
2512,313	3	-0,006
2522,261	-12	-3,486
2532,208	-1,5	-1,479
2542,156	0	-0,815
2552,109	-11,5	-3,483
2562,063	2,5	-0,191
2572,016	-4	-2,195
2581,963	-5	-2,634
2591,917	3	-0,025
2601,864	-11,5	-3,499
2611,812	0	-0,747
2621,759	-1,5	-1,609
2631,713	-7	-3,061
2641,66	2,5	-0,018
2651,607	-11,5	-3,499
2661,555	-0,5	-0,901
2671,508	-2	-1,735
2681,45	-5,5	-2,76
2691,397	2	-0,074
2701,339	-11,5	-3,497
2711,286	-0,5	-0,856
2721,233	-1	-1,431
2731,187	-8,5	-3,277
2741,134	3	-0,005
2751,082	-11	-3,243
2761,023	-1,5	-1,4
2770,971	0	-0,494
2780,918	-10,5	-3,494
2790,871	1,5	-0,572
2800,819	-1,5	-1,461
2810,772	-8,5	-3,372
2820,726	3	-0,002
2830,673	-7,5	-2,834
2840,615	-2,5	-2,087
2850,568	0,5	-0,326
2860,503	-10,5	-3,496
2870,451	1,5	-0,475
2880,392	-2,5	-1,859
2890,334	-5	-2,833
2900,281	2,5	-0,014
2910,235	-10,5	-3,5
2920,176	0	-0,901
2930,123	-1	-1,553
2940,071	-7,5	-3,382
2950,012	2,5	0
2959,96	-2,5	-2,138
3006,031	-0,5	-0,918
3015,985	0	-1,011
3025,932	-8,5	-3,467
3035,879	2,5	-0,026
3045,827	-1,5	-1,939
3055,774	-4,5	-2,933
3065,716	2,5	-0,018
3111,787	-6,5	-3,369
3121,735	2,5	-0,002
3131,688	-4,5	-2,688
3141,635	-2	-2,284
3151,583	2,5	-0,054
3161,524	-8	-3,42
3171,478	-1	-1,631
3181,425	1	-0,207
3191,379	-8	-3,499
3201,332	0	-0,966
3211,291	0	-0,922
3221,239	-8	-3,484
3231,198	2	-0,296
3235,374	2,5	-0,001

File: _4.txt
Time (s)	Load (N)	Displacement (mm)
36,363	-16,5	-3,057
45,83	-2,5	-0,702
55,299	-14,5	-2,716
64,783	-2	-0,666
74,281	-15	-3,206
83,766	0,5	-0,114
93,264	-20	-3,424
102,767	1	-0,087
112,272	-20,5	-3,468
121,762	2	-0,01
131,266	-21	-3,497
140,769	2	-0,084
186,6	2	-0,014
196,116	-20	-3,498
205,649	2	-0,126
215,189	-15,5	-2,768
224,71	-3	-1,211
234,238	-8,5	-1,964
243,771	-6,5	-2,045
253,305	-3	-1,129
262,796	-9,5	-2,59
272,317	-1	-0,724
281,815	-12	-2,966
291,33	0,5	-0,227
300,858	-19	-3,469
310,373	2,5	-0,012
319,889	-19,5	-3,497
365,72	-13,5	-3,086
375,248	1	-0,156
384,757	-18,5	-3,459
394,267	2,5	-0,018
403,776	-19	-3,494
413,291	2,5	-0,002
422,789	-19	-3,499
432,31	1,5	-0,5
441,814	-14	-2,754
451,311	-2	-1,006
460,799	-10,5	-2,364
470,306	-4	-1,634
479,804	-6	-1,858
489,313	-4,5	-1,734
498,805	-7,5	-2,034
508,308	-3,5	-1,39
517,811	-7	-2,062
527,297	-3,5	-1,447
536,8	-6,5	-1,92
655,042	2,5	-0,02
664,527	-18	-3,491
674,019	2,5	-0,008
683,516	-17,5	-3,493
693,013	3	-0,002
702,487	-17,5	-3,499
711,984	2,5	-0,001
721,476	-17,5	-3,315
730,979	-1	-0,816
740,459	-10	-2,394
749,944	-3,5	-1,581
759,442	-2,5	-1,172
768,927	-10,5	-3,032
778,413	1,5	-0,099
787,904	-17	-3,482
797,389	2,5	-0,003
806,875	-17,5	-3,499
816,366	2,5	-0,32
825,858	-11,5	-2,605
835,343	-3,5	-1,615
844,841	-3,5	-1,543
854,326	-10	-2,881
863,818	0	-0,52
945,713	-3,5	-1,721
955,192	-1,5	-1,042
964,684	-13,5	-3,298
974,169	2,5	-0,022
983,655	-16,5	-3,498
993,134	0	-0,701
1002,62	-7	-2,208
1012,099	-4,5	-1,966
1021,579	-0,5	-0,898
1031,058	-13	-3,314
1040,55	2,5	-0,026
1050,035	-16,5	-3,494
1059,527	2,5	-0,002
1069,012	-14	-2,974
1078,497	-2,5	-1,257
1087,977	-3	-1,42
1097,468	-8,5	-2,786
1106,942	2	-0,046
1116,427	-16,5	-3,497
1125,925	2,5	-0,335
1135,41	-8,5	-2,323
1144,896	-3	-1,6
1154,375	-2,5	-1,27
1163,843	-9,5	-2,998
1173,328	0,5	-0,299
1182,813	-15,5	-3,468
1192,305	2,5	-0,004
1201,778	-16,5	-3,499
1211,264	0	-0,691
1220,749	-6	-2,04
1230,223	-5,5	-2,266
1239,708	0	-0,645
1249,194	-14	-3,4
1258,673	2,5	-0,013
1268,159	-16,5	-3,498
1277,638	2,5	-0,264
1287,111	-14	-2,926
1296,573	-1	-0,934
1306,058	-6,5	-2,159
1315,538	-3,5	-1,728
1325,011	-2	-1,24
1334,479	-7,5	-2,655
1343,952	0	-0,701
1353,432	-12	-3,272
1362,911	2	-0,068
1372,379	-15,5	-3,476
1381,858	2,5	-0,024
1391,332	-16	-3,496
1400,817	2,5	-0,016
1410,29	-15	-3,154
1419,77	-0,5	-0,783
1429,255	-7,5	-2,3
1438,735	-3	-1,708
1448,22	-4	-1,714
1457,7	-5,5	-2,341
1467,167	0	-0,705
1476,659	-14	-3,396
1486,132	2,5	-0,027
1495,606	-15,5	-3,49
1505,079	3	-0,002
1514,565	-16	-3,45
1524,05	3	-0,06
1533,535	-13	-2,9
1543,009	-1,5	-0,968
1552,482	-5	-2,01
1561,962	-5,5	-2,296
1571,447	0	-0,67
1580,915	-9,5	-3,092
1590,394	1,5	-0,068
1599,88	-15,5	-3,489
1609,359	3	-0,002
1618,845	-15,5	-3,466
1628,324	2,5	-0,276
1637,809	-15,5	-3,206
1647,283	0	-0,812
1656,762	-5,5	-2,062
1666,248	-3	-1,61
1675,715	-4,5	-1,876
1685,201	-5	-2,354
1694,68	0	-0,605
1704,166	-12	-3,346
1713,645	2,5	-0,03
1723,119	-15	-3,494
1732,592	3	-0,002
1742,065	-15	-3,47
1751,539	1	-0,562
1761,03	-7	-2,294
1770,498	-3	-1,84
1779,965	-1,5	-1,089
1789,439	-9	-2,982
1798,918	2,5	-0,044
1808,398	-15	-3,492
1817,877	3	-0,001
1827,345	-14	-3,054
1836,824	-1,5	-1,175
1846,292	-4,5	-1,792
1855,765	-5	-2,336
1865,238	0	-0,339
1874,706	-15	-3,469
1884,173	3	-0,003
1893,635	-15	-3,309
1903,108	-0,5	-0,799
1912,588	-4,5	-1,859
1922,067	-5	-2,347
1931,535	-0,5	-0,75
1940,996	-10	-3,031
1950,47	2	-0,073
1959,949	-15	-3,487
1969,422	3	-0,003
1978,896	-15	-3,5
1988,363	0	-0,649
1997,843	-6,5	-2,268
2007,316	-3,5	-1,861
2016,802	0	-0,662
2026,287	-14,5	-3,445
2035,767	3	-0,018
2045,234	-15	-3,496
2054,702	3	-0,238
2064,175	-7	-2,298
2073,661	-4,5	-2,279
2083,134	0,5	-0,221
2092,607	-15	-3,49
2102,087	3	-0,138
2111,56	-7,5	-2,328
2121,034	-4	-2,077
2130,501	0	-0,564
2139,987	-15	-3,467
2149,46	3	-0,002
2158,94	-15	-3,498
2168,407	-1	-0,971
2177,887	-3	-1,68
2187,354	-4,5	-2,401
2196,834	1	-0,16
2206,313	-15	-3,489
2215,786	3	-0,016
2225,26	-15	-3,301
2234,721	-1	-1,041
2244,201	-3	-1,725
2253,674	-3,5	-2,073
2263,142	0	-0,793
2272,621	-8,5	-2,94
2282,101	0	-0,584
2291,58	-13,5	-3,426
2301,06	3	-0,006
2310,521	-15	-3,5
2319,994	0	-0,585
2329,456	-5,5	-2,099
2338,935	-4,5	-2,268
2348,403	1	-0,194
2357,87	-15	-3,484
2367,344	3	-0,002
2376,817	-15	-3,498
2386,291	2,5	-0,001
2395,746	-12	-2,923
2405,22	-2	-1,397
2414,699	-1,5	-1,205
2424,167	-9,5	-3,12
2433,646	2,5	-0,032
2443,12	-14,5	-3,498
2452,599	2,5	-0,368
2462,066	-6	-2,353
2471,552	-3,5	-2,047
2481,025	0	-0,692
2490,505	-9,5	-3,148
2499,972	2	-0,074
2509,44	-14,5	-3,49
2518,913	3	-0,004
2528,375	-14,5	-3,499
2537,854	3	-0,054
2547,327	-8	-2,562
2556,807	-2,5	-1,756
2566,274	-0,5	-0,875
2575,754	-10,5	-3,343
2585,227	2,5	-0,009
2594,689	-14,5	-3,268
2604,168	-1	-1,153
2613,642	-6	-2,299
2623,121	-2	-1,626
2632,595	-1	-1,295
2642,062	-5,5	-2,601
2651,53	0	-0,272
2661,009	-13,5	-3,461
2670,47	2,5	-0,009
2679,938	-14,5	-3,499
2689,411	3	-0,059
2698,879	-14	-3,206
2708,358	3	0
2717,832	-14,5	-3,345
2727,293	3	-0,143
2736,773	-14	-3,231
2746,246	3	-0,238
2755,714	-14	-3,262
2765,181	3	-0,285
2774,643	-14	-3,27
2784,122	-0,5	-0,95
2793,595	-3,5	-1,875
2803,093	-3,5	-2,144
2812,554	-0,5	-0,93
2822,034	-9,5	-3,224
2831,501	2	-0,064
2840,981	-13,5	-3,468
2850,454	3	-0,019
2859,928	-14	-3,496
2869,401	2,5	-0,001
2878,875	-14	-3,315
2888,348	1,5	-0,496
2897,821	-14	-3,284
2907,295	1,5	-0,517
2916,756	-8,5	-2,68
2926,23	-2	-1,459
2935,697	-2,5	-1,714
2945,177	-5	-2,39
2954,644	-0,5	-0,949
2964,118	-7,5	-2,962
2973,591	1	-0,249
2983,053	-12	-3,422
2992,532	3	-0,03
3002,005	-13,5	-3,486
3011,473	3	-0,005
3020,952	-13,5	-3,499
3030,42	3	-0,022
3039,887	-13	-3,234
3049,367	-0,5	-0,788
3058,84	-5,5	-2,291
3068,314	-2	-1,618
3077,787	-2,5	-1,683
3087,243	-2,5	-1,96
3096,71	-1,5	-1,426
3106,178	-4	-2,417
3115,645	0	-0,938
3125,118	-4,5	-2,7
3128,772	3	-0,001